time,Mode,Knee_Angle,Knee_Velocity,Knee_Current,Ankle_Angle,Ankle_Velocity,Ankle_Current,Acc_X,Acc_Y,Acc_Z,Gyro_X,Gyro_Z,Gyro_Y,Shank_Angle,Thigh_Angle,Knee_Ref_Torque,Ankle_Ref_Torque,Filtered_Vertical_Load
0,2,-0.0453708507543158,0.0114546138899909,0.010589922788171,-0.086886196478164,-0.0387788527075004,0.0509760836614073,-0.00615456607765943,-0.177180293181148,-0.0263374736777856,-0.0187994018372143,0.332148197882015,0.0524918362987152,-0.168986073386842,-0.123391420229703,0.0193792535172582,0.0517237871435692,0.601687673574023
0.03,2,-0.0480259610787276,-0.00627664011556342,0.0289976704204433,-0.097384563737907,-0.0282194484288054,0.0512812687561673,-0.0508743552964873,-0.15225684377575,-0.00827051606799524,0.00408439385153762,0.308425143182674,0.0433566291289,-0.165328938667969,-0.117074088768171,0.0317799412010051,0.0515559353414513,0.674041973123366
0.06,2,-0.0493840347504095,-0.00159713532924385,0.032985422325307,-0.105121005890072,-0.0211696727398501,0.0495773186437574,-0.0403759880367443,-0.155837682220934,-0.0156763410341706,0.0223497217729219,0.322102521846166,0.130288603371278,-0.156030966114282,-0.10640786970631,0.0314442375967691,0.0492619607125055,0.732250943530585
0.09,2,-0.0529038361766411,-0.00906908373261717,0.0337076937162389,-0.108666239407534,-0.00533565274005351,0.0444502090517899,-0.0304066082745852,-0.165461185542365,-0.0300200404878892,0.0314696696879991,0.299549343343404,-0.000940987375509913,-0.143141982278919,-0.0900448622089297,0.0353607796461888,0.043900875881222,0.792713197220781
0.12,2,-0.0576545508184047,-0.0139316995757927,0.0413068025757622,-0.109032461521246,0.000467950478631957,0.0402793460900703,-0.0426547034109521,-0.159235409609261,-0.0231228573463139,2.54320912299977e-05,0.296889146600747,-0.0196946114485102,-0.131560207932778,-0.0736920275480412,0.0425377157912941,0.0396740623187963,0.863597521897031
0.15,2,-0.0591855627104505,-0.00299081392864772,0.0401725313069043,-0.10561947487818,0.0155898719239886,0.0357015696686707,-0.0251370789717297,-0.167638172551653,-0.0173650318918424,-0.00641905982645141,0.333501185135451,0.00223293760999379,-0.113925595873898,-0.054546749270099,0.0383770256660665,0.0314442375967691,0.927762688070315
0.18,2,-0.0596535131890825,6.61234371979939e-05,0.0364136682231107,-0.0958077740816472,0.0384990997039705,0.0250862147892697,-0.0228990549434899,-0.162775556708477,-0.0196437472660502,-0.00479140598773156,0.337127801344849,0.00838750368765323,-0.0955076754051332,-0.0356354462314727,0.0364899644968006,0.0162917976419365,0.954517248044272
0.21,2,-0.0600299081392865,0.000152592547379986,0.0367544582455926,-0.0795871862951547,0.0573646249783827,0.00833663950519323,-0.0263171280048016,-0.161737927386293,-0.0202337717825861,-0.0163528346608885,0.33107496363211,0.00671915850296538,-0.0798313343709627,-0.0195877966653442,0.0367748039185766,-0.000625629444257942,0.961083813999858
0.24,2,-0.0602944018880785,0.000152592547379986,0.0367290261543626,-0.0677663502914518,0.0257983133437096,-0.000559506007059949,-0.0306304106774092,-0.155980101931822,-0.0239163385926898,-0.0311187068290251,0.311049734997609,-0.0157628101443525,-0.0730969166132593,-0.0125939715770948,0.0367748039185766,0.00850957772555722,0.952319915362
0.27,2,-0.0605283771273944,0.000152592547379986,0.0367442854091006,-0.0607623523667104,0.021713919492172,0.00927254046245715,-0.00605283771273944,-0.157017731254006,-0.0258898688721376,-0.0703960285246335,0.261162144840846,0.0378938159326965,-0.0637328206223741,-0.00302641885636972,0.0369426557206946,0.0117801446577349,0.944079917803481
0.3,2,-0.0608539078951384,0.000152592547379986,0.0373241370891446,-0.0451165298420158,0.0531530706706951,-0.00133264158045188,-0.00951160212001912,-0.157424644713686,-0.0198878953418582,-0.111275571967732,0.207734407584867,0.0629393393759982,-0.0428835922320221,0.0180567847732983,0.0372325815607166,-0.00946073793755913,0.940087079480372
0.33,2,-0.0613828953927224,0.000152592547379986,0.0372071494694866,-0.0293079419334493,0.0427106540116581,-0.00948617002878913,-0.0201930804366181,-0.160476495661285,-0.0186671549628183,-0.115136163416445,0.185537278359325,0.102150537634409,-0.0404624571469263,0.0210018209377321,0.0374004333628346,-0.0132958972950428,0.941475671661529
0.36,2,-0.0619169693085523,0.000152592547379986,0.0376598406933805,-0.021403647979166,0.0186976734722943,-0.00396231981363364,-0.0189723400575783,-0.159276100955229,-0.0116885891293069,-0.106580807926674,0.158650471510971,0.0469476404105757,-0.0405184077476323,0.021469771416364,0.0376903592028565,-0.00241604866684978,0.940865301472009
0.39,2,-0.0623544012777083,0.000152592547379986,0.0379497665334025,-0.0129805393637908,0.0280922879726554,-0.00234483881140578,-0.0102847376934111,-0.160395112969349,-0.0153101189204586,-0.107394634846034,0.168436740216274,0.0187383648182623,-0.0357524338511307,0.0266884365367595,0.0381023590807825,-0.00819421979430525,0.947096163823359
0.42,2,-0.0626087221900082,0.000152592547379986,0.0381277911720125,-0.00305693736584572,0.0260119429100416,-0.00842310861537523,-0.0270902635781935,-0.160374767296365,-0.0147811314228746,-0.135898922696615,0.203309223710847,-0.100400809757785,-0.0334991505681529,0.0291807814772993,0.0381481368449965,-0.0131585640024008,0.95527003794468
0.45,2,-0.0628070925016022,0.000152592547379986,0.0378683838414665,0.00398775190486363,0.022207302062034,-0.0100711081270791,-0.0101219723095391,-0.166498814864549,-0.00314340647602771,-0.0688395845413577,0.315078178248441,-0.0478733685313476,-0.021596931872514,0.0412661112297942,0.0381481368449965,-0.0120548112430189,0.965605639820551
0.48,2,-0.0626494135359762,0.000152592547379986,0.0381939146092105,0.0167902666300445,0.0448876410209459,-0.0169581184321624,-0.00501520839055554,-0.156488743756422,-0.0163477482426425,-0.0941801202429273,0.353216142256946,-0.0467340108442437,-0.00228888821069979,0.0605029450361644,0.0381481368449965,-0.0292977690969573,0.966404207485173
0.51,2,-0.0624357839696443,0.000152592547379986,0.0379294208604185,0.0335296690776289,0.0527054658650471,-0.0339264097008169,-0.00918607135227515,-0.161737927386293,-0.00633767713451542,-0.0927864416435235,0.410458693197424,-0.0481175166071556,0.0129754529455448,0.075624866481521,0.0381481368449965,-0.0443942584510839,0.964629047517319
0.54,2,-0.0616473891415143,0.00246182643106377,0.0379243344421725,0.0502843307799514,0.054261909848323,-0.053997416099531,-5.08641824599953e-05,-0.162612791324605,-0.00896226894945118,-0.0954720704774112,0.479964598529008,-0.0578122297840307,0.032990508743553,0.0948108361054313,0.0375377666554765,-0.0553198848434909,0.972065390992971
0.57,2,-0.0550655639311909,0.022054709514654,0.0294910529903053,0.0710063987141535,0.0688192388683737,-0.076102989796645,0.00426241849014761,-0.163752149011709,-0.0097760958688111,-0.0944547868282113,0.571408225755587,-0.0276090782392855,0.0632445244707582,0.118513545131789,0.0246080914741457,-0.0782087669504888,0.979176203700878
0.6,2,-0.0414848272143722,0.0426750490839361,0.0130822677287108,0.0941292560604673,0.0740684224982452,-0.100894192327647,-0.00554419588813949,-0.179499699901323,-0.00900296029541917,-0.108991770175278,0.69782606484166,-0.0148014770958586,0.101097649057487,0.142796105838191,0.00580868963693147,-0.102206488235115,0.974730674153874
0.63,2,-0.0272835474715415,0.0379141616056805,-0.000712098554439934,0.118879767245501,0.0748720765811131,-0.125573493657236,0.000559506007059949,-0.181941180659403,-0.0234483881140578,-0.158228298796553,0.827580594297108,-0.00133264158045188,0.148655659657582,0.176163009531948,-0.00122074037903989,-0.131514430168564,0.941211177912737
0.66,2,0.00477106031474756,0.0900804671366517,-0.0210781172114221,0.134220404675436,0.0336313974425489,-0.132470676798812,0.0170395011240984,-0.195572781558682,0.0204982655313781,-0.172978911709952,0.708588925850195,-0.0538346507156591,0.193650115461694,0.189021474857835,-0.0391857661671804,-0.136275317646819,0.825535854162216
0.69,2,0.0375377666554765,0.0912401704967396,-0.0693482263659576,0.137312946969003,-0.00372325815607166,-0.126641641488896,0.0534175644194871,-0.172826319162572,-0.00717184972685934,-0.132246874395988,0.593513799452701,-0.032990508743553,0.234076967680898,0.196620583717358,-0.0659810174871059,-0.12874741864274,0.645964944405449
0.72,2,0.0666320790225939,0.0851771599475082,-0.0224412773013499,0.12732322153386,-0.054790897345907,-0.130385245317952,0.00157678965625985,-0.211238949756361,0.0115461694184189,-0.110334584592222,0.509303058971933,-0.0629393393759982,0.26542964974924,0.198858607745598,0.0170496739605904,-0.151158177434614,0.413179926959034
0.75,2,0.13271482487462,0.21184931994588,0.0531835891801711,0.0811588895331685,-0.189336832789087,-0.153792942086042,-0.0392773216956084,-0.28334401481165,-0.011240984323659,-0.0876796777245399,0.696981719412824,0.00173955504013184,0.300515762810144,0.167861974954477,0.0686361278115177,-0.163202815841141,0.311166722617267
0.78,2,0.257759331034272,0.424197108879869,0.0457574185410118,0.0129805393637908,-0.246416618345693,-0.140374970753095,-0.0554724773908709,-0.316263313699759,-0.0053814305042675,0.0271106092511775,1.0814945931374,0.138045391196427,0.353892635883663,0.0962045147048352,0.0454522334462518,-0.135471663563952,0.294493443606881
0.81,2,0.405428225552131,0.515813674326813,0.0178940193894264,-0.0590024516535946,-0.247108371227149,-0.0887071342102318,-0.0664184494562619,-0.283099866735842,-0.00383515935748365,0.010691651153091,1.37855159154027,0.0748008667256691,0.43015839106418,0.0248318938769697,0.011271502833135,-0.0788903469954527,0.24003824986521
0.84,2,0.54816329437137,0.497268593401898,-0.00803654082867926,-0.13042593666392,-0.243354594561602,-0.0376496678568885,-0.0364289274778486,-0.19683421328369,-0.010386466058331,0.0737022003845332,1.24961088900418,0.23780022583697,0.511947996459853,-0.0360118411816767,-0.00928779971719515,-0.0199692780337942,0.0794193344930367
0.87,2,0.67558824427015,0.435427920367036,-0.022003845332194,-0.210699789422285,-0.273323770867031,-0.00231940672017579,-0.0428174687948241,-0.0785444705547248,0.000803654082867926,0.0520544043295592,0.512548193812881,0.253537603890093,0.563798944059572,-0.111575670644246,-0.0291960407320373,0.120222581662445,0.0176396984771264
0.9,2,0.768283130385245,0.319467757194739,-0.0315459659616891,-0.249427777947325,-0.0361440880560727,0.13195186213772,0.0259509058910896,-0.0834681234168523,0.00247199926755577,0.0349131748405408,0.097364218064923,0.0573646249783827,0.580136519465723,-0.187902462843715,-0.0338653726818649,0.165267901649017,0.00489313435265155
0.93,2,0.816766869106113,0.1701203446557,-0.0234687337870418,-0.179560736920275,0.30929492070274,0.0659911903235979,-0.0532751447085991,0.000559506007059949,0.0168360443942585,-0.0846278267769402,-0.527878658406323,-0.102084414197211,0.567033906064028,-0.249498987802769,-0.0226040426852219,0.0710674357331054,0.00230923388368379
0.96,2,0.831008840194912,0.0536922310047711,-0.0518102562537512,-0.0672119307026378,0.402539139988403,-0.00288908556372773,-0.0344350515254168,-0.0553910946989349,0.00393688772240364,-0.0385550503046765,-1.01451663767408,-0.233497116000855,0.518987599312316,-0.311787265643279,-0.0781172114220608,-0.0311085339925331,0.00174972787662384
0.99,2,0.768242439039277,-0.209662160100101,-0.102674438713747,0.0128279468164108,0.2228868475397,-0.0521764783674632,-0.185033722952971,0.0685140537736137,-0.00839259010589923,-0.180028687398907,-1.82069358399202,-0.21535894853562,0.436760561947488,-0.331247901852474,-0.10803552354503,-0.0719321268349254,0.00087486393831192
1.02,2,0.639128798282825,-0.436140018921476,-0.0448927274391919,0.0262459181493576,0.00954212062949512,-0.0290739666941333,-0.120375174209825,-0.107191178116194,0.000966419466739911,-0.0716879787591174,-2.73672699158706,-0.394350006612344,0.293160802026429,-0.345723848180588,-0.0454115421002838,-0.0177312540055544,0.000946073793755913
1.05,2,0.482385733614104,-0.527034312977487,-0.0075787631865393,0.0121361939349549,-0.0468560848821477,0.00349945575324768,0.0282296212652974,-0.326883754997406,-0.010589922788171,-0.190669474369538,-2.93729463586332,-0.361135695465967,0.120253100171921,-0.361888485366375,-0.0021668141727958,0.00812809635710725,0.00147506129133986
1.08,2,0.319772942289499,-0.544185715302998,0.0279447818435214,0.00585955381939146,-0.0103254290393791,0.00388602353994364,0.086906542151148,-0.388083539333272,-0.0151066621906186,-0.0887274798832158,-2.60653503016246,-0.246284371471297,-0.0454827519557278,-0.365153965880306,0.0300607318338572,0.00201422162541581,0.00152592547379986
1.11,2,0.17861466312652,-0.475864945422732,0.0411084322641682,0.0054526403597115,0.000152592547379986,0.000671407208471938,0.119541001617481,-0.37229529709769,-0.0274361400189215,-0.0690633869441817,-2.09664194667399,-0.022105573697114,-0.186895352031007,-0.365387941119622,0.0455030976287118,-0.00122074037903989,0.00166834518468785
1.14,2,0.0723085217851294,-0.362152979115167,0.043081962543616,0.00596128218431145,0.00580868963693147,0.000345876440727968,0.104037598803674,-0.292051962848801,-0.0258898688721376,-0.010539058605711,-1.52150028992584,0.262662638223416,-0.295683665476445,-0.36792097740613,0.0469171219010997,-0.00237027090263578,0.00167851802117985
1.17,2,0.00500503555406354,-0.2172917874691,0.0361949522385327,0.00483718375194556,-0.00522883795688752,-0.00126651814325388,0.0786258532466608,-0.211523789178137,-0.00570696127201147,0.00901313313191117,-0.992090619627471,0.451714631590726,-0.372900580868964,-0.377788628803369,0.0365052237515386,-0.000834172592343923,0.00167851802117985
1.2,2,-0.0269580167037975,-0.0939257993306273,0.0234331288593198,0.00463372702210557,0.000152592547379986,0.000620543026011943,0.0620034384187343,-0.175532293669444,-0.00676493626717938,0.010915453555915,-0.565981017487106,0.4112521744438,-0.423184911648915,-0.396013265378786,0.02150028992584,-0.00122074037903989,0.00167851802117985
1.23,2,-0.0358287301248207,-0.0303710033468632,0.0141300698873867,0.00448113447472559,0.000152592547379986,0.000610370189519944,0.053763440860215,-0.160883409120965,-0.00961333048493912,0.0841649627165543,-0.292489394817957,0.21459598579872,-0.4322946867275,-0.396272672709332,0.0118055767489649,-0.00122074037903989,0.00167851802117985
1.26,2,-0.0404573707286803,-0.0133721935687328,0.0101728364919991,0.0043488876003296,0.000152592547379986,0.000610370189519944,0.0490025533819595,-0.152806176946318,-0.00371308531957966,0.152907905311238,-0.125817641733044,-0.0021566413363038,-0.354675944293547,-0.314020203253273,0.00901821955015717,-0.00122074037903989,0.00167851802117985
1.29,2,-0.0450453199865719,-0.0145471561835587,0.00925728120771915,0.00427259132663961,0.000152592547379986,0.000640888698995941,0.0502843307799514,-0.144037191890215,0.00153609831029186,0.173492639952798,0.0125634530676188,-0.158243558051291,-0.268801945046337,-0.223502304147465,0.0101067130548011,-0.00122074037903989,0.00167851802117985
1.32,2,-0.0489618620359915,-0.010910367137669,0.0102643920204271,0.00423698639891761,0.000152592547379986,0.000630715862503942,0.0550248725852229,-0.145034129866431,0.0032858261869157,0.163279112114831,0.17523219499293,-0.208324432101403,-0.182220933662933,-0.133030182805872,0.0102745648569191,-0.00122074037903989,0.00167851802117985
1.35,2,-0.0516220587786492,-0.00826542964974924,0.00990325632496109,0.00411999877925962,0.000152592547379986,0.000610370189519944,0.054638304798527,-0.151422671183406,0.00237027090263578,0.151997436445204,0.343272194586016,-0.192347992390718,-0.0984374523148289,-0.0465865047151097,0.0100711081270791,-0.0010834070863979,0.00167851802117985
1.38,2,-0.0522222561316772,-0.00135298725343588,0.00969979959512111,0.00405387534206163,0.000152592547379986,0.000610370189519944,0.0511998860642313,-0.157729829808445,0.00314340647602771,0.142765587328715,0.502934863327942,-0.154906867681916,-0.0204219692576881,0.0319477930031231,0.00921150344350515,-0.00076296273689993,0.00167851802117985
1.41,2,-0.0557980081586149,-0.010905280719423,0.00990325632496109,0.00396740623187963,0.000152592547379986,0.000610370189519944,-0.437238685262612,-0.160761335083061,0.112013102613402,-0.0658131656849879,0.162643309834081,-0.184240241706595,0.0222886847539699,0.0783054088971628,0.0102084414197211,-0.00076296273689993,0.00942513300983713
1.44,2,-0.0715048677022614,-0.0508743552964873,0.0163172297331665,0.000116987619657989,-0.0193436485895362,0.00152592547379986,-0.0316070029806411,-0.173599454735964,0.0171208838160344,0.0362152979115167,0.199001027456486,0.0347300637836848,0.0297809788303273,0.101529994608397,0.0205338704591001,0.0032807397686697,0.0910570594398836
1.47,2,-0.065248573259682,0.0144149093091627,0.0150151066621906,-0.0225938698487299,-0.0888088625751518,0.0130110578732668,-0.0883917762789799,-0.149795017344686,0.0133772799869788,-0.0456556901760918,0.25627409690644,0.389823094373404,0.043804233934548,0.109286782433546,0.010681478316599,0.0285042878505814,0.192754905850398
1.5,2,-0.0580055136773787,0.0234992522965178,0.00998972543514308,-0.0550146997487309,-0.102704957223223,0.0502945036164434,-0.0425733207190161,-0.151829584643086,-0.0246691284930977,-0.000895209611295918,0.253313801487269,0.295113986632893,0.0595009206417025,0.117720063885413,0.0160120446384065,0.06488235114597,0.282550533565274
1.53,2,-0.0579037853124587,0.00380464084800765,0.0333363851842809,-0.0743736075930052,-0.043743196915596,0.0549434898932869,-0.0494908495335754,-0.193131300800602,-0.0232449313842179,0.0127465641244748,0.278277942238634,0.0471104057944477,0.0748415580716371,0.132948800113936,0.0350250760419528,0.0536820581682791,0.406618447421695
1.56,2,-0.0551266009501429,0.0101728364919991,0.0274056215094455,-0.0860316782128361,-0.0353099154637288,0.0486363312682475,-0.054373811049735,-0.151422671183406,0.00523901079337952,0.0315968301441491,0.296466973886329,0.0417086296171962,0.0878119245989359,0.143203019297871,0.0277413251136814,0.0493687754956715,0.534704631692455
1.59,2,-0.0555233415733309,0.000823999755851924,0.032542903937905,-0.0999582913703828,-0.043651641387168,0.0578529211299987,-0.0558386995045829,-0.162205877864925,-0.00940987375509914,0.022054709514654,0.298074282052065,0.0812809635710725,0.0843735058646402,0.140151168350271,0.0332956938383129,0.0586464023763746,0.63594470046083
1.62,2,-0.0533463545640431,0.00782291126234728,0.0303862626016012,-0.112338633381146,-0.0359609769992167,0.0601723278501745,-0.0451775668609678,-0.162897630746381,-0.010549231442203,0.0233263140761539,0.292479221981465,0.0185349080884223,0.0879034801273639,0.141443118584755,0.0289824111657053,0.0613625497197384,0.708721172724591
1.65,2,-0.0534480829289631,0.00122074037903989,0.0306711020233772,-0.119958087913653,-0.0180466119368063,0.054617959125543,-0.0413932716859442,-0.158421582689901,-0.00639871415346741,0.0248725852229377,0.278430534786014,0.0203660186569821,0.0904772077598397,0.144138920255135,0.0317494226915291,0.054424675232195,0.758629108554338
1.68,2,-0.0536718853317871,0.000152592547379986,0.032675150812301,-0.124596901354005,-0.0131127862381868,0.0512812687561673,-0.0446485793633839,-0.151585436567278,-0.00802636799218726,0.0364391003143406,0.272031820632547,0.021393475142674,0.0590126244900866,0.112908312224698,0.032807397686697,0.0510879848628193,0.796960356456191
1.71,2,-0.053885514898119,0.000152592547379986,0.032746360667745,-0.128533789076408,-0.010752688172043,0.0529292682678711,-0.0402946053448083,-0.156916002889086,-0.011037527593819,0.0461134678182318,0.275775424461603,0.0194606362091942,0.032217373170161,0.0863266904711041,0.032807397686697,0.0536515396588031,0.854884487441633
1.74,2,-0.054129662973927,0.000152592547379986,0.032868434705649,-0.129601936908068,0,0.0471816156498917,-0.0351674957528408,-0.162572099978637,-0.00928779971719515,0.0392976673685924,0.270861944435967,-0.0138757489750867,0.0319528794213691,0.0863266904711041,0.032959990234077,0.0471205786309397,0.940956857000437
1.77,2,-0.054373811049735,0.000152592547379986,0.0332956938383129,-0.128788109988708,0.0065106153548794,0.0463270973845637,-0.0303659169286172,-0.167699209570605,-0.010996836247851,0.0319020152389091,0.264544612974436,-0.0146387117119867,0.0299488306324452,0.0845159255755282,0.0332651753288369,0.0442213202307199,1.0226345611947
1.8,2,-0.0553097120069989,-0.00136316008992787,0.0337229529709769,-0.122511469873145,0.0246284371471297,0.0368053224280526,-0.0271106092511775,-0.164688049968973,-0.010345774712363,0.0252286345001577,0.253588468072553,-0.0086265653452152,0.0383821120843125,0.0938952808211514,0.0334991505681529,0.0331532741274249,1.06965341146072
1.83,2,-0.0577003285826187,-0.00663268939278339,0.0384940132857245,-0.10935799228899,0.0480463067517116,0.0247606840215257,-0.033051545762505,-0.161188594215725,-0.0127465641244748,0.0054119490137435,0.248064617857397,-0.00360118411816767,0.0315154474522131,0.0894192327646718,0.0393281858780684,0.0152287362285226,1.07983642078921
1.86,2,-0.0578325754570147,-0.000274666585283975,0.0359609769992167,-0.0970386872971791,0.0361746065655487,0.0160120446384065,-0.0317901140374971,-0.155166275012462,-0.010386466058331,-0.00378429517502365,0.237505213578702,-0.00493382569861955,0.0134383170059308,0.0714336578468174,0.0355845820490127,0.0140690328684347,1.06732383190405
1.89,2,-0.0578325754570147,0.000152592547379986,0.0350657673879208,-0.0885545416628519,0.0290739666941333,0.0172429578539384,-0.0232449313842179,-0.154271065401166,-0.011078218939787,-0.00996937976215908,0.239702546260974,-0.0032959990234077,0.00349945575324768,0.0615456607765943,0.0352488784447768,0.0176396984771264,1.05163731803339
1.92,2,-0.0578325754570147,0.000152592547379986,0.0352997426272368,-0.0748110395621611,0.0471205786309397,0.00712098554439934,-0.0245877458011617,-0.154271065401166,-0.00953194779300312,-0.0140690328684347,0.256365652434868,-0.00303150527461572,-0.0010579749951679,0.0569780571916868,0.0352488784447768,0.00259407330545976,1.04168828394421
1.95,2,-0.0578325754570147,0.000152592547379986,0.0352081870988088,-0.065604622536902,0.0206508580787581,0.00408948026978362,-0.0310576698100731,-0.15703807692699,-0.00949125644703513,-0.0191045869319742,0.25958026876634,-0.0140792057049267,-0.00777204707988728,0.0501520839055554,0.0352488784447768,0.010905280719423,1.04588966541541
1.98,2,-0.0579444766584267,0.000152592547379986,0.0352895697907448,-0.0594602292957345,0.0175176244392224,0.010854416536963,-0.0143335266172267,-0.160374767296365,-0.011118910285755,-0.0248420667134617,0.265470341095208,-0.0194402905362102,-0.0116377249468469,0.0463677887305317,0.0352488784447768,0.0137943662831507,1.05725272377697
2.01,2,-0.0576189458906827,0.000925728120771915,0.0353912981556647,-0.0400809757784763,0.0720643737093214,0.00270597450687175,-0.00904365164138717,-0.159845779798781,-0.00827051606799524,-0.0263781650237536,0.312784203619495,0.00463881344035157,0.000488296151615955,0.0582293160802026,0.0352488784447768,-0.0187180191452783,1.06677449873348
2.04,2,-0.053987243263039,0.0128584653258868,0.0297657195755893,-0.0169275999226864,0.0645669932147181,-0.0207017222612181,-0.0289824111657053,-0.162287260556861,-0.010589922788171,-0.0371003346863206,0.353190710165716,-0.000264493748791976,0.0164494766075625,0.0706300037639495,0.0270902635781935,-0.0311695710114851,1.07527899004079
2.07,2,-0.0481175166071556,0.0187383648182623,0.0231838943652659,-0.00674459059419538,0.0243741162348298,-0.0124718975391909,-0.00717184972685934,-0.163833531703645,-0.00961333048493912,-0.0527766757204911,0.361084831283507,-0.0182195501571703,0.0378226060772525,0.0861639250872321,0.0209560431735181,-0.00947091077405113,1.07415997802667
2.1,2,-0.043499048839788,0.0155339213232826,0.0186875006358023,0.0149947609892066,0.0828577532273324,-0.0165206864630065,0.00503555406353954,-0.153050325022126,-0.00818913337605925,-0.0552893663340149,0.43794061098056,-0.00903347880489517,0.0615151422671183,0.105227820673238,0.0186875006358023,-0.0453505050813318,1.05983662424594
2.13,2,-0.0357880387788527,0.02172917874691,0.0160222174748985,0.0384431491032645,0.0604164759259824,-0.0513728242845953,-0.043997517827896,-0.170344147058524,-0.0116478977833389,-0.0790124210333567,0.56455173395998,-0.0359609769992167,0.0916572567929116,0.12767927081108,0.0125532802311268,-0.0537837865331991,1.05593025503301
2.16,2,-0.021159499903358,0.0371613717052726,0.00164799951170385,0.0590736615090386,0.0747194840337331,-0.0666524246955779,0.0196030559200822,-0.157770521154413,-0.00969471317687511,-0.108961251665802,0.674855800042726,-0.0363373719494207,0.130029196040732,0.151463362529374,-0.00300098676513972,-0.0678223008921578,1.04528946806238
2.19,2,0.00783308409883928,0.0797855566067487,-0.02142399365215,0.087293109937844,0.0855230363882361,-0.097354045228431,-0.0032654805139317,-0.166722617267373,-0.00489313435265155,-0.1275266782637,0.639535711742505,-0.0531530706706951,0.168675801873836,0.160954618976409,-0.0382295195369325,-0.102206488235115,1.02244127730135
2.22,2,0.0340077923927529,0.0720745465458134,-0.0581987975707266,0.110965300454726,0.0710572628966135,-0.112287769198686,0.0260322885830256,-0.159398174993133,0.000152592547379986,-0.151615955076754,0.609454634235664,-0.0598366242459385,0.207383444725893,0.173446862188584,-0.0584124271370586,-0.117893002105777,0.975605538092186
2.25,2,0.0531225521612191,0.0517187007253232,-0.0558895636870429,0.125909197261472,0.032654805139317,-0.123610136214281,0.00377412233853165,-0.193863745028026,0.00894192327646718,-0.153640349538662,0.548529516485082,-0.155847855057426,0.241025015004934,0.187983845535651,-0.0567339091158788,-0.124830876593321,0.908546199936928
2.28,2,0.0709148431857255,0.0484023560289315,-0.0628681295205542,0.134708700827052,0.0189926857305623,-0.127099419131036,0.0297758924120813,-0.181330810469883,0.0160629088208665,-0.144525488041831,0.494969532354706,-0.164871161025829,0.272835474715415,0.202002014221625,-0.0608335622221544,-0.130537837865332,0.794824060792871
2.31,2,0.0932238736126794,0.065146844894762,-0.0338755455183569,0.1346476638081,-0.0142623167617827,-0.136682231106499,0.00825017039501124,-0.209774061301513,0.0075991088595233,-0.127587715282652,0.486749880469171,-0.241147089042838,0.301492355113376,0.208370209865617,-0.0144962920010987,-0.14752647480697,0.612038534704632
2.34,2,0.144108401745659,0.164128543961913,0.00362152979115167,0.111250139876502,-0.113203324482966,-0.14915412864569,-0.0355337178665527,-0.268898586993011,-0.0125837987406028,-0.0961536505223752,0.650217190059104,-0.174555701366212,0.335205135247861,0.19118828903063,0.032542903937905,-0.161890519933673,0.457950580360322
2.37,2,0.233741264076662,0.301650034079002,0.0341298664306569,0.0585904517756686,-0.19846186712241,-0.141682180242317,-0.0344553971984008,-0.295347961872209,0.00175990071311584,-0.0690125227617216,0.886252428764713,-0.0751263974934131,0.380809961241493,0.147160252693258,0.043453271075574,-0.143838821578621,0.406196274707277
2.4,2,0.357915992716249,0.433230587684764,0.0225989562669759,-0.00668355357524339,-0.241396323536892,-0.106702881964578,-0.0532547990356151,-0.281228064821314,0.00879950356557919,0.0186061179438663,1.15247555976033,-0.0710725221513515,0.441699474064353,0.0838546912035483,0.0191249326049582,-0.102745648569191,0.314594968515071
2.43,2,0.50078839482813,0.490529089225949,-0.00597145502080345,-0.0828119754631184,-0.263130588702048,-0.0514491205582853,-0.0164291309345785,-0.21215450504064,-0.0155135756502986,-0.00097659230323191,1.10471409243039,-0.0349640390230008,0.511098564612771,0.010447503077283,-0.00801110873744926,-0.043961912900174,0.132216355886512
2.46,2,0.634500157678966,0.460743023977376,-0.0211645863216041,-0.165573086743777,-0.284864853867204,-0.02208522802413,-0.0130720948922188,-0.116021200191249,-0.010528885769219,0.010762861008535,0.696366262805058,0.0476444797102776,0.566235338399406,-0.0680257576219978,-0.0291095716218553,0.0943937498092593,0.0297301146478673
2.49,2,0.73790195420189,0.360464288257495,-0.0311746574297311,-0.233344523453475,-0.167953530482905,0.104408907335632,0.0121361939349549,-0.0711386455885495,0.000518814661091952,0.00474562822351756,0.194713176875108,0.114083274839524,0.591006195257424,-0.146661783705151,-0.0350555945514288,0.176015503402814,0.00741599780266732
2.52,2,0.798908454644409,0.217413861507004,-0.0261289305296996,-0.200226854253772,0.20103050833664,0.0859299498479161,-0.0269274981943215,-0.022003845332194,-0.0144962920010987,0.0242774742881558,-0.326054668823308,0.0170954517248044,0.586911628569394,-0.211742505162715,-0.0259458194728436,0.0998972543514308,0.00281787570828374
2.55,2,0.821095411033458,0.0858129622282581,-0.0456200852483698,-0.102359080782495,0.371339050467442,0.032649718721071,-0.0274564856919055,-0.0390942106387524,-0.00770083722444329,-0.141204056927193,-0.841441084017457,-0.119785149693289,0.550325022125919,-0.270516067995239,-0.0667287209692679,-0.00526444288460952,0.00184636982329783
2.58,2,0.768186488438571,-0.17294330678223,-0.108076214890998,0.00577308470920947,0.36792097740613,-0.0140232551042207,-0.186641031118707,0.0744753359579251,-0.0129093295083468,-0.135415712963246,-1.65859452091027,-0.0778425448367768,0.478611611275572,-0.289300210577715,-0.113844213181962,-0.0995818964201788,0.00157678965625985
2.61,2,0.643787957396161,-0.41547390158798,-0.0483616646829636,0.0683258562985117,0.158518224636575,-0.053946551917071,-0.147434919278542,-0.10930712810653,0.00127160456149988,-0.0195877966653442,-2.62137211218604,-0.240185755994344,0.342946663818272,-0.300617491175064,-0.0498062074648274,-0.075975829340495,0.00152083905555386
2.64,2,0.488118126977345,-0.51888078452915,-0.011037527593819,0.0662912890001119,-0.0389212724183884,-0.0302336700542212,0.0120141198970509,-0.316405733410647,-0.00493382569861955,-0.065401165807062,-2.89572333953876,-0.184982858770511,0.174591306293934,-0.313308104698833,-0.00494908495335754,-0.0185501673431603,0.00156153040152186
2.67,2,0.323231706696778,-0.548488825139114,0.0266324859360536,0.0448723817662079,-0.065401165807062,0.00198878953418582,0.102287870927051,-0.369792779320658,-0.0167953530482905,-0.0880408134200059,-2.53494369335002,0.0170649332153284,0.0118513545131789,-0.311217586799727,0.0298623615222633,0.0022176783552558,0.00167851802117985
2.7,2,0.179113132114628,-0.483901486251411,0.0422630492060101,0.0367849767550686,-0.0157373780531226,-0.00246691284930977,0.128269295327616,-0.329610075177262,-0.0147404400769066,0.0304472996205532,-2.00159713532924,0.30280973743909,-0.124525691498561,-0.30357270017599,0.0466577145705537,-0.00711081270790735,0.00156153040152186
2.73,2,0.0701722261218096,-0.36842961923073,0.0442213202307199,0.0353811253191727,-0.00401827041433963,-0.00560014648884548,0.109246091087578,-0.249956765444909,0.00477106031474756,0.0556047242652669,-1.4229509364096,0.489135410626545,-0.227032278410189,-0.297082430494095,0.0483718375194555,-0.0120497248247729,0.00153101189204586
2.76,2,0.00368256681010366,-0.227444278288115,0.0380108035523545,0.033046459344259,-0.00391145563117364,-0.00796024455498927,0.0823491114027324,-0.1767326883755,0.010671305480107,0.0170649332153284,-0.932991526027202,0.476098920662048,-0.295775221004873,-0.299340800195319,0.0382956429741305,-0.00974049094108911,0.00167851802117985
2.79,2,-0.0287840408541114,-0.111606189153722,0.0264442884609516,0.0298521886857713,-0.0114240953805149,-0.00901821955015717,0.076469211910357,-0.14971363465275,0.010732342499059,0.0360067547634307,-0.52635781935077,0.288196457818333,-0.30642109439375,-0.277423423973306,0.0245267087822097,-0.00802128157394126,0.00167851802117985
2.82,2,-0.043371888383638,-0.0487634917243975,0.0178482416252124,0.0276395967487615,-0.00362152979115167,-0.00832646666870123,0.0668660542619098,-0.148716696676534,0.0119734285510829,0.0733970152897732,-0.241248817407758,-0.00847905921608122,-0.269402142399365,-0.225786105939919,0.0160120446384065,-0.00779747917111728,0.00167851802117985
2.85,2,-0.0508387503687653,-0.0234280424410738,0.0133213293862728,0.0249641407513657,-0.00766523229672129,-0.00800602231920326,0.0601316365042065,-0.158319854324981,0.00536108483128351,0.0971149835708691,-0.0144098228909167,-0.22039450259916,-0.239646595660268,-0.188568783633941,0.0128533789076408,-0.00662251655629139,0.0011190120141199
2.88,2,-0.0523595894243192,-0.00316883856725771,0.010920539974161,0.0247250790938037,0.000137333292641987,-0.0076143681142613,0.0456251716666158,-0.139703563544623,0.0010681478316599,0.10938342438022,0.178624835963012,-0.289290037741223,-0.188172043010753,-0.13558865118361,0.00972523168635111,-0.00852992339854122,0.00120039470605589
2.91,2,-0.0528580584124271,6.61234371979939e-05,0.00922676269824315,0.0245470544551937,0.000152592547379986,-0.00792463962726727,0.0254626097394737,-0.107435326192002,0.0022075055187638,0.135410626545,0.296441541795099,-0.347763501897234,-0.147963906776126,-0.0949023916338593,0.00885036774803919,-0.00854518265327921,0.00152083905555386
2.94,2,-0.0529801324503311,0.000152592547379986,0.00890123193049918,0.0237484867905718,-0.00393180130415764,-0.00847905921608122,0.0114037497075309,-0.0949837743257953,0.0100202439446191,0.148782820113732,0.398236030152287,-0.397457808160649,-0.126819666127506,-0.0736259041108432,0.00885036774803919,-0.00787886186305328,0.00156153040152186
2.97,2,-0.0508540096235033,0.00668863999348938,0.0086265653452152,0.021820734275338,-0.00359609769992167,-0.00706503494369335,-0.00391654204941964,-0.116835027110609,0.0183619698680583,0.086799727367982,0.47465946429843,-0.343755404319386,-0.100497451704459,-0.0494298125146235,0.00770592364268929,-0.00566118350779748,0.00167851802117985
3,2,-0.0481683807896156,0.00658691162856939,0.00769575080619729,0.021673228146204,0.000152592547379986,-0.00685649179560737,-0.011139255958739,-0.143996500544247,0.0114444410534989,0.0196234015930662,0.590472121341594,-0.265068514053774,-0.0685700043743197,-0.0201829076001261,0.00737530645669932,-0.0076296273689993,0.00167851802117985
3.03,2,-0.0442569251584419,0.00463372702210557,0.00658691162856939,0.021642709636728,0.000152592547379986,-0.00723797316405733,-0.0446078880174159,-0.161290322580645,-0.00340790022481969,0.0152236498102766,0.67780083620716,-0.177760144861192,-0.0309508550269072,0.0133772799869788,0.0065614795373394,-0.00749229407635731,0.00161239458398185
3.06,2,-0.0344960885443688,0.0192266609698782,0.0054678996144495,0.0197658213039542,-0.00725831883704133,-0.0042980234178696,-0.065319783115126,-0.177587206640828,-0.00845362712485122,0.0332499160740989,0.549704479099907,-0.0743125705740532,0.00351980142623168,0.0381888281909645,0.00347911008026368,-0.00466933194982757,0.00152592547379986
3.09,2,-0.0240689311400698,0.0229855240536719,0.000228888821069979,0.0198217719046602,-8.13826919359925e-05,-0.00387585070345164,-0.0888393810846278,-0.177526169621876,-0.00666320790225939,0.043265073600472,0.556515193131301,-0.0127414777062288,0.0378683838414665,0.0621611173843603,0.000686666463209937,-0.00675476343068738,0.00163274025696585
3.12,2,-0.0114800459812209,0.032319101535081,-0.000686666463209937,0.0192927844070762,-2.54320912299977e-05,-0.00459303567613758,-0.0842412589902442,-0.176468194626708,-0.00591041800185146,0.0551215145318969,0.490345978169093,-0.00346893724377168,0.0680817082227037,0.0797753837702567,-0.00225328328297779,-0.00634784997100742,0.00167851802117985
3.15,2,0.00134281441694388,0.0345266070538448,-0.00404878892381563,0.0194758954639322,0.000152592547379986,-0.00534073915829951,-0.097893205562507,-0.172012492243212,-0.00827051606799524,0.0521815647857092,0.426664021729179,0.0711996826075015,0.0963367615792311,0.0951312804549293,-0.00511693675547553,-0.0065614795373394,0.00167851802117985
3.18,2,0.0126702678507848,0.032629373048087,-0.00534582557654551,0.0194962411369162,0.000152592547379986,-0.00586972665588346,-0.0838546912035483,-0.165583259580269,-0.0087384665466272,0.0318613238929411,0.388215786207668,0.242713705862606,0.120232754498937,0.107674387849564,-0.00688192388683737,-0.0065614795373394,0.00167851802117985
3.21,2,0.0194657226274402,0.0178584144617044,-0.00667338073875139,0.0187231055635243,-0.00393180130415764,-0.00636819564399141,-0.0971200699891151,-0.148004598122094,-0.00967436750389111,-0.0189418215481023,0.244844915107679,0.418312122969248,0.139612008016195,0.120227668080691,-0.00622068951485743,-0.00611387473169144,0.00167851802117985
3.24,4,0.02216152429782,0.00569170201727348,-0.00498977629932554,0.0132145146031068,-0.0237942645547858,-0.000834172592343923,-0.0827356791894284,-0.399314350820439,0.0663167210913419,-0.161427655873287,0.309905290892259,0.206305124057741,0.154133732108524,0.132043417666148,-0.00388602353994364,-9.66419466739911e-05,0.143218278552609
3.27,4,0.0454522334462518,0.0724255094047873,-0.0285348063600574,-0.0167190567746005,-0.115304015218563,0.0170751060518204,-0.0100405896176031,-0.197770114240954,0.011078218939787,0.076311532944731,0.486042868332977,0.13357951597644,0.178060243537706,0.132648701437422,-0.0447757398195339,0.0531276385794651,0.511973428551083
3.3,4,0.0730409660125533,0.0834630369986063,-0.0881527146214179,-0.0299386577959532,-0.0021464684998118,0.0342061627043468,0.0690430412711977,-0.199255348368786,-0.02198349965921,0.0783410138248848,0.497263506983652,0.0384075441755425,0.210608233893857,0.137674082664469,-0.0892106896165858,0.0273089795627715,0.774763227230649
3.33,4,0.0848363699250262,0.0365153965880306,-0.0713166702271594,-0.00235501164789778,0.0957111321349732,-0.0191859696239102,-0.0149032054607786,-0.173192541276284,-0.00676493626717938,0.0312865586311431,0.366761274046042,-0.0130822677287108,0.23507899207536,0.150369782606484,-0.0708588925850195,-0.0496790470086774,0.871044038209174
3.36,4,0.0918098493402915,0.0178126366974904,-0.0645771660512101,0.00889105909400718,0.0144250821456547,-0.0253913998840297,-0.011037527593819,-0.163833531703645,-0.0116478977833389,0.0201727347636341,0.217891984822128,-0.00845362712485122,0.251492863755201,0.159774569943337,-0.0584225999735506,-0.0159916989654225,0.819767855871253
3.39,4,0.0948617002878913,0.00920641702525915,-0.0131229590746788,0.0137129835912147,0.0202744631285541,-0.00205491297138381,0.0054831588691875,-0.153660695211646,-0.00411999877925962,-0.00573747978148747,0.19398581906593,-0.0122277494633829,0.252204962309641,0.15744499038667,-0.00410982594276762,-0.00742617063915932,0.680867946409497
3.42,4,0.102908413953063,0.0271614734336375,-0.00858587399924721,0.0268257698294015,0.0441094190293079,-0.00855535548977121,-0.00920641702525915,-0.155776645201982,-0.0098167872147791,-0.0202235989460941,0.311553290403963,0.0189825128940703,0.2647175511948,0.161910865606657,-0.0143843907996867,-0.0194911547186702,0.550594602292957
3.45,4,0.10915453555915,0.022075055187638,-0.0137333292641987,0.0401318399609363,0.0400606301054923,-0.0158594520910265,0.00829086174097924,-0.153904843287454,-0.00399792474135563,-0.0251472518082217,0.319193090609455,-0.00399792474135563,0.283761101107822,0.174667602567624,-0.0126244900865708,-0.0211188085573901,0.495376445814386
3.48,4,0.117221594897305,0.0276802880947295,-0.0123803420107629,0.0566830449334188,0.0596636860255745,-0.0226650797041739,0.0124006876837469,-0.158625039419741,-0.00171920936714784,-0.0173039948728904,0.377391888180181,-0.00131229590746788,0.304493341878516,0.187373475346131,-0.0139469588305307,-0.0291655222225613,0.480676697083448
3.51,4,0.130965096997996,0.0455437889746798,-0.0193995991902422,0.0806299020355846,0.0792057049267047,-0.0344553971984008,0.00011190120141199,-0.166926073997213,-0.0043641468550676,-0.0203558458204901,0.447930336415703,-0.00391654204941964,0.329315062918994,0.19846186712241,-0.0231126845098219,-0.0421257159133681,0.495315408795434
3.54,4,0.153284300261442,0.0731426943774733,-0.0334381135492009,0.104861598559526,0.0777713349813328,-0.04330576494644,0.00511693675547553,-0.163548692281869,-0.00509659108249153,-0.0277820164596494,0.523473820205288,-0.00354014709921567,0.358948535620187,0.205735445214189,-0.0379751986246325,-0.0463983072400077,0.505681529180781
3.57,4,0.178594317453536,0.0837224443291523,-0.0452894680623798,0.127485986917732,0.0723288674581133,-0.0481988992990916,0.0256253751233456,-0.157160150964894,-0.00660217088330739,-0.0474766279081596,0.532008830022075,0.00585955381939146,0.39076916816716,0.212225714896084,-0.0458489740694398,-0.0479038870408236,0.510310169784641
3.6,4,0.205175939207129,0.0893785414187038,-0.0477004303109836,0.15413881852677,0.0914334543900876,-0.0584022543005666,0.0290027568386893,-0.153335164443902,-0.00334686320586769,-0.0480971709341716,0.559434797204505,-0.00185145624154383,0.423210343740145,0.21815647857092,-0.0479140598773156,-0.0591753898739586,0.514358958708457
3.63,4,0.238542842900886,0.112481053092034,-0.0588498591062146,0.183965575121311,0.0970386872971791,-0.0666625975320699,0.0244046347443058,-0.166437777845597,-0.00285856705425174,-0.0554724773908709,0.633432009847306,0.0225430056662699,0.458947518336538,0.220486058127588,-0.0592364268929105,-0.0670796838282418,0.527136041342408
3.66,4,0.280627867468286,0.139795119073051,-0.0749839777825251,0.214382356232388,0.101107821893979,-0.0743532619200212,0.0406811731315043,-0.148859116387422,-0.000823999755851924,-0.0486871954507075,0.692068239387188,0.0380362356435845,0.49926246935433,0.218695638904996,-0.0751467431663971,-0.0742820520645772,0.536790063173315
3.69,4,0.325815607165746,0.151636300749738,-0.0820744448174485,0.247820469781589,0.114291817987609,-0.0834376049073763,0.0531734163436791,-0.139296650084943,-0.000376394950203965,-0.0390433464562924,0.680644144006673,-0.00364187546413566,0.54068625954975,0.214962207912432,-0.0825729138055564,-0.0838038270210883,0.534073915829951
3.72,4,0.37407554348379,0.161829482914721,-0.0889614551225318,0.281431521551154,0.107699819940794,-0.0887885169021678,0.0480869980976796,-0.156793928851182,-0.00175990071311584,-0.0502029480880154,0.673360393078402,0.0195928830835902,0.580980864894558,0.206946012756737,-0.0889818007955158,-0.0897956277148757,0.536698507644887
3.75,4,0.425255083875037,0.17490157780694,-0.0950142928352713,0.313323363953571,0.106143375957518,-0.0920133060701315,0.0463372702210557,-0.160903754793949,-1.01728364919991e-05,-0.0423291726432081,0.74235257016714,0.0250760419527777,0.623269346191799,0.19810581784519,-0.0944751325011953,-0.0931526637572354,0.537217322305979
3.78,4,0.48358612832016,0.196518855352438,-0.106641844945626,0.343780836410616,0.098096662292347,-0.0970386872971791,0.065258746096174,-0.14991709138259,-0.00371308531957966,-0.0407218644774723,0.776685893327636,0.0752281258583331,0.669403159683014,0.185898414054791,-0.10706910407829,-0.0971404156620991,0.528631448306731
3.81,4,0.545589566738894,0.210750653604745,-0.115482039857173,0.374869024730166,0.10849330118717,-0.104536067791782,0.0838953825495163,-0.148533585619678,0.010406811731315,-0.021200191249326,0.811202327544989,0.0739972126428012,0.716625466678874,0.171117282631916,-0.115217546108381,-0.104922635578478,0.520106611326436
3.84,4,0.612140263069552,0.225684377574999,-0.123335469628997,0.41026032288583,0.120975371562853,-0.117058829513433,0.0817387412132125,-0.126438184759056,-0.0101016266365551,-0.0297860652485733,0.886349070711386,0.0665812148401339,0.767855871252581,0.15576647236549,-0.123589790541297,-0.116133101392661,0.506363109225745
3.87,4,0.681366415397605,0.233965066479486,-0.12961210974456,0.448479669586271,0.13149408449558,-0.12579729606006,0.0896735536769717,-0.130670084739728,0.00666320790225939,-0.0387279885250404,0.912747581408124,0.0847193823053682,0.821955015717032,0.140720847193823,-0.129418825851212,-0.127465641244748,0.491693879004283
3.9,4,0.75482446770633,0.251106295968505,-0.137526576535335,0.486627806431267,0.127821690521968,-0.130283516953032,0.0878424431084119,-0.192927844070762,0.00198370311593982,-0.0162460198777225,1.04909410891039,0.103589993998026,0.880499689728487,0.125726086204616,-0.137241737113559,-0.133355713573616,0.482050030009868
3.93,4,0.838963998331655,0.285775322733238,-0.15642770673747,0.514887946206041,0.0793684703105767,-0.115593941058585,0.10411898149561,-0.21368043051444,-0.0102237006744591,0.0357371745963927,1.15164647358623,0.191106906338694,0.947202978606525,0.108300017293822,-0.15658029928485,-0.125319172744936,0.463972899563585
3.96,4,0.93038727988525,0.312814722128971,-0.17032380138554,0.51738029114658,-0.00333669036937569,-0.0960112308114872,0.120802433342489,-0.17510503453678,0.0227769809055859,0.0261848811304056,1.1548610899177,0.164484593239133,1.01743624174729,0.087089653208004,-0.171778517003896,-0.0938138981292154,0.385794651122572
3.99,4,1.01191239153213,0.279712312184006,-0.160974964649393,0.514430168563901,-0.00805688650166326,-0.0877712332529679,0.124220506403801,-0.0411491236101362,0.0263578193507696,-0.054607786289051,0.841822565385906,0.054475539414655,1.07791375469222,0.0660624001790419,-0.163090914639729,-0.0901516769920957,0.188024536881619
4.02,4,1.06384472182379,0.183792636900947,-0.0900804671366517,0.503758863083794,-0.04325490076398,-0.064750104271574,0.152541683197526,-0.0861537522507401,0.0296131270282093,-0.143742179631947,0.457350383007294,-0.0967945392213711,1.11568549658701,0.0519119846186712,-0.0698670410270496,-0.0412305063020722,0.0664998321481979
4.05,4,1.11695710114851,0.19057791884111,-0.010559404278695,0.487828201137323,-0.0445671966714479,-0.0156559953611866,0.141880550553911,-0.219214453566088,0.00397757906837163,-0.206742556026897,0.298593096713157,-0.126397493413088,1.13740450249743,0.0204982655313781,-0.0185349080884223,0.00835189875993123,0.0192673523158462
4.08,4,1.15747550889615,0.15037486902473,-0.02183090711183,0.473535365866064,-0.0340077923927529,-0.00381481368449965,0.010406811731315,-0.140680155847855,-0.0087181208736432,-0.237729015981526,-0.0610268461155024,-0.0535599841303751,1.14556311736401,-0.0117089348022909,-0.0239163385926898,0.00809757784763126,0.00524918362987152
4.11,4,1.16552222256132,0.0420138147119561,-0.0138655761385947,0.466099022390413,-0.00385550503046765,0.00180059205908383,-0.0346385082552568,-0.118299915565457,-0.00232957955666779,-0.103844314910326,-0.543850011698762,-0.08732362844732,1.12580746889655,-0.0394706055889564,-0.00888088625751518,0.00076296273689993,0.00236009806614378
4.14,4,1.15669220048626,-0.0132450331125828,-0.0317697683645131,0.461572110151474,-0.00660217088330739,-0.0459201839248838,-0.0265816217535936,-0.1257464318776,0.00300098676513972,-0.0805586921801406,-0.890153711559394,-0.0523901079337952,1.0422070986053,-0.114240953805149,-0.0607623523667104,-0.134006775109104,0.00174972787662384
4.17,4,1.10513626514481,-0.167241431928465,-0.0883816034424879,0.39280373546556,-0.329162470371614,-0.10483108005005,-0.201595100761945,0.00230923388368379,0.00560523290709148,-0.164362519201229,-1.46514277576017,-0.0884528132979319,0.954466383861812,-0.150415560370698,-0.0909451582384716,-0.123009938861253,0.00167851802117985
4.2,4,1.00110375275938,-0.321787163914914,-0.0497655161188594,0.236660868149866,-0.500539160334076,-0.010971404156621,-0.110202337717826,-0.0697347941526536,-9.15555284279916e-05,-0.0302285836359752,-2.26703695791498,-0.17103589993998,0.750963876257617,-0.249753308715069,-0.0521205277667572,0.0408744570248522,0.00167851802117985
4.23,4,0.873251543727938,-0.405087435529649,-0.0280414237901954,0.0839767652414523,-0.471063366598509,-0.00282804854477574,-0.0239773756116418,-0.14910326446323,-0.00564592425305948,-0.109556362600584,-2.51460310678426,-0.0671915850296538,0.509791355123549,-0.363226213365073,-0.0258491775261696,0.117221594897305,0.00167851802117985
4.26,4,0.742052471490626,-0.452146977141636,-0.0122430087181209,-0.021469771416364,-0.315683462019715,0.0903347880489517,0.0302641885636972,-0.182958464308603,-0.0132755516220588,0.0704316334523555,-2.7115746533606,0.141214229763685,0.321960102135278,-0.419893999043753,-0.00411491236101362,0.135883663441877,0.00167851802117985
4.29,4,0.600838241726941,-0.472884304330576,0.0122989593188269,-0.0401114942879523,-0.00351980142623168,0.0444756411430199,0.123243914100569,-0.310525833918271,-0.0140893785414187,0.121148309783217,-2.41993469038972,0.354350413525803,0.168207851395204,-0.43239641509242,0.0133976256599628,0.0340891750846889,0.00167851802117985
4.32,4,0.459812209438358,-0.466261787774285,0.0256355479598376,-0.0205999938962981,0.0690226955982137,-0.00296029541917173,0.0985849584439629,-0.283832310963266,-0.00253303628650777,0.144474623859371,-2.19393495488347,0.614266385896379,0.0307423118788212,-0.428886786502681,0.0280159916989654,-0.0124006876837469,0.00167851802117985
4.35,4,0.334899950153101,-0.418388419242938,0.0310068056276131,-0.011027354757327,0.0211391542303741,-0.00561540574358348,0.0951668853826513,-0.26568397066154,-0.00175990071311584,0.115359965819269,-1.83847570218004,0.679942218288725,-0.0889207637765638,-0.423729158401237,0.0335907060965809,-0.0032146163314717,0.00167851802117985
4.38,4,0.232662943408511,-0.344126712851344,0.0318816695659251,-0.010376293221839,0.000335703604235969,0.00414034445224362,0.118157495854569,-0.216895046845912,-0.000457777642139958,0.150059511093478,-1.4849391155736,0.726330352692241,-0.189306314279611,-0.421877702159693,0.032715842158269,0.00536108483128351,0.00167851802117985
4.41,4,0.154026917325358,-0.267321797336751,0.0281991027558214,-0.0102643920204271,0.000152592547379986,0.00483209733369956,0.118116804508601,-0.169245480717388,0.0146387117119867,0.168777530238756,-1.17506434319081,0.586667480493586,-0.268135624256111,-0.422091331726025,0.0283110039572334,0.00549333170567949,0.00167851802117985
4.44,4,0.0907111829991556,-0.215084281950336,0.0252082888271737,-0.0100914538000631,0.000152592547379986,0.00512710959196753,0.118076113162633,-0.138197983743807,0.0312814722128971,0.186844487848547,-0.797041739148127,0.377198604286833,-0.324523656931262,-0.415153457238482,0.0258186590166936,0.00549333170567949,0.00167851802117985
4.47,4,0.0420138147119561,-0.166264839625233,0.0235195979695018,-0.00885036774803919,0.00115970336008789,0.00283822138126774,0.0952889594205552,-0.129490035706656,0.0441806288847519,0.113762830490026,-0.476811019216488,0.175389873958556,-0.276182337921283,-0.318094424268319,0.0232347585477259,0.00423189998067161,0.00167851802117985
4.5,4,0.00903347880489517,-0.114078188421278,0.0193487350077822,-0.00781273842585528,0.00690735597806736,0.0043946653645436,0.0863775546535641,-0.146499018321279,0.0356354462314727,0.0317799412010051,-0.155491805780206,-0.0209051789910581,-0.251513209428185,-0.260434787031668,0.0184433525599943,0.00252286345001577,0.00167851802117985
4.53,4,-0.00929797255368714,-0.0646890672526221,0.0137740206101667,-0.0076296273689993,0.000193283893347982,0.00380464084800765,0.0499181086662394,-0.139866328928495,0.0240791039765618,0.032970163070569,0.149184647155166,-0.266009501429284,-0.195837275307474,-0.186295154677979,0.0121463667714469,0.00393688772240364,0.00167851802117985
4.56,4,-0.0152999460839666,-0.021952981149734,0.00857570116275521,-0.00776187424339529,0.000152592547379986,0.00388602353994364,0.0243232520523698,-0.147434919278542,0.0211900184128341,0.0387991983804844,0.423444318979461,-0.425489059114353,-0.122053692231005,-0.106519770907722,0.00602231920326345,0.00396740623187963,0.00135298725343588
4.59,4,-0.0128584653258868,0.00559506007059949,0.00136316008992787,-0.00790429395428327,0.000152592547379986,0.00440483820103559,-0.0103050833663951,-0.179133477787612,0.0245674001281777,-0.0179754020813623,0.612516658019756,-0.42970061342204,-0.0724102501500493,-0.0593076367483545,0.000457777642139958,0.00421155430768761,0.00150557980081586
4.62,4,-0.010742515335551,0.000610370189519944,0.000152592547379986,-0.00816878770307525,0.000152592547379986,0.00454725791192358,-0.0446485793633839,-0.205623544012777,0.00674459059419538,-0.0573137607959227,0.703787347025971,-0.379813023265277,-0.0315663116346731,-0.0205796482233141,0.00097659230323191,0.00442518387401959,0.00154627114678386
4.65,4,-0.00271614734336375,0.0131026134016948,-8.13826919359925e-05,-0.00850449130731122,0.000152592547379986,0.00468967762281157,-0.065401165807062,-0.199804681539354,-0.0121361939349549,-0.0199794508702862,0.55987222917366,-0.322702719199194,0.00563575141656748,0.00849431847081922,-0.00114953052359589,0.00442518387401959,0.00167851802117985
4.68,4,0.00456760358490758,0.0123905148472549,-0.00261441897844376,-0.0087181208736432,0.000152592547379986,0.00419120863470361,-0.0682902513707897,-0.184993031607003,-0.0142928352712587,0.0677409182002218,0.572791731518499,-0.259610787275816,0.0401420127974283,0.0356557919044567,-0.0021362956633198,0.00442518387401959,0.00167851802117985
4.71,4,0.00788394828129927,0.00145471561835587,0.000447604805647959,-0.00888088625751518,0.000152592547379986,0.00476088747825556,-0.0613320312102624,-0.174738812423068,0.000600197353027945,0.0554826502273629,0.492904446546831,-0.086784468113244,0.0711488184250415,0.0633564256721702,-0.000579851680043947,0.00503555406353954,0.00167851802117985
4.74,4,0.0103152562028871,0.000162765383871985,0.000457777642139958,-0.00900296029541917,0.000152592547379986,0.00500503555406354,-0.0480259610787276,-0.172215948973052,0.00393688772240364,-0.0177414268420464,0.522598956266976,0.146661783705151,0.101880957467371,0.0916674296294036,-0.000640888698995941,0.00503555406353954,0.00167851802117985
4.77,4,0.0114749595629749,-0.00136316008992787,0.000457777642139958,-0.00988799707022309,-0.00451673940244758,0.00498468988107954,-0.336975208797469,-0.285704112877794,0.0420646788944161,-0.236335337382122,0.188451796014283,0.383627836949777,0.125715913368124,0.114312163660593,-0.000701925717947935,0.00594093651132745,0.0479038870408236
4.8,4,0.010956144901883,-0.00250251777703177,0.000447604805647959,-0.0252896715191097,-0.0633564256721702,0.0124312061932229,-0.11032441175573,-0.253557949563077,0.00930814539017914,0.0274056215094455,0.475213883887244,0.08701844335256,0.142084007283751,0.131199072237312,-0.00011190120141199,0.032115644805241,0.386669515060884
4.83,4,0.0332651753288369,0.065808079266742,-0.010711996826075,-0.0468052206996877,-0.0566525264239428,0.0342112491225929,0.0601723278501745,-0.206559444970041,0.00523901079337952,0.0785851619006928,0.5220597959329,0.161839655751213,0.171666615802484,0.138472650329091,-0.0250862147892697,0.0376191493474125,0.593086540320037
4.86,4,0.0676595355082858,0.105024363943398,-0.0574460076703187,-0.0412101606290882,0.0382498652099165,0.00965402183090711,0.0179347107353944,-0.163426618243965,-0.0171412294890184,0.0186061179438663,0.585965554775638,0.00718202256335134,0.207892086550493,0.140334279407127,-0.0579851680043947,-0.0021973326822718,0.741528570411288
4.89,4,0.0912910346791996,0.0737937559129612,-0.0445773695079399,-0.02208522802413,0.0614337595751824,-0.00820947904904324,-0.0116885891293069,-0.164443901893165,-0.00224819686473179,-0.021515549180578,0.431419822789188,-0.0274361400189215,0.236945707571642,0.145736055584379,-0.04294971566922,-0.0164901679535305,0.743481755017752
4.92,4,0.105044709616382,0.0422477899512721,-0.0292367320780053,-0.00158696249275185,0.0619830927457503,-0.0145471561835587,-0.000823999755851924,-0.153864151941486,0.00487278867966755,-0.0101728364919991,0.352885525070955,-0.00952177495651112,0.260007527899004,0.15505437381105,-0.0246182643106377,-0.021963153986226,0.654499954222236
4.95,4,0.116387422304961,0.0345062613808608,-0.0203456729839981,0.0133569343139948,0.0399182103946043,-0.0175684886216824,-0.00904365164138717,-0.160985137485885,-0.00586972665588346,-0.0187485376547543,0.355133721935687,0.0152897732474746,0.281289101840266,0.164962716554257,-0.0192266609698782,-0.0175277972757144,0.58338165430667
4.98,4,0.129551072725608,0.0402132226528723,-0.0198675496688742,0.0263883378602456,0.043041271197648,-0.0171107109795424,0.00617491175064343,-0.154922126936654,0.000925728120771915,-0.0343333231604968,0.39010793379518,0.00287891272723574,0.303150527461572,0.173711355937376,-0.0211086357208981,-0.0178329823704744,0.559190649128697
5.01,4,0.14971363465275,0.064851832636494,-0.0290231025116733,0.0497553432823674,0.0844447157200842,-0.0257067578152816,0.0153304645934426,-0.154881435590686,0.000681580044963937,-0.0488804793440555,0.474044007690664,0.00883002207505519,0.329335408591978,0.179723502304147,-0.033082064271981,-0.0360525325276447,0.554399243140965
5.04,4,0.176000244148076,0.0852687154759362,-0.0440382091738639,0.0809249142938526,0.102155624052655,-0.043010752688172,0.00605283771273944,-0.15683462019715,-0.000376394950203965,-0.0473138625242876,0.503616443372906,0.00308236945707572,0.359233375041963,0.183324686422315,-0.0460117394533118,-0.0514643798130233,0.563931190933968
5.07,4,0.205247149062573,0.0962350332143111,-0.0510472935168513,0.106601153599658,0.0780154830571408,-0.0472426526688437,0.0087384665466272,-0.165135654774621,0.00198370311593982,-0.0453505050813318,0.499689728486994,-0.00193283893347982,0.388917711925616,0.183721427045503,-0.0512304045737073,-0.0469578132470677,0.581784518977427
5.1,4,0.238502151554918,0.111097547329122,-0.0601825006866665,0.130456455173396,0.0782901496424248,-0.0512507502466913,0.021922462640258,-0.162653482670573,0.00234992522965178,-0.0442314930672119,0.54475539414655,0.00597145502080345,0.420260221157465,0.181819106621499,-0.0599180069378745,-0.0505589973652354,0.595192317473881
5.13,4,0.275948362681967,0.124322234768721,-0.0673034862310658,0.160212001912493,0.0996429334391308,-0.0622577593310343,0.0290434481846573,-0.155980101931822,0.00401827041433963,-0.0376801863663645,0.593686737673065,0.00727357809177933,0.454878383739738,0.178991058076724,-0.0680257576219978,-0.0630105492314422,0.597471032848089
5.16,4,0.312580746889655,0.123243914100569,-0.0687276833399457,0.190252388073367,0.097679575996175,-0.0682597328613137,0.0309559414451532,-0.158462274035869,0.00194301176997182,-0.0350962858973968,0.620949939471623,0.0189214758751183,0.491083508814763,0.17856379894406,-0.0675984984893338,-0.0690125227617216,0.600146488845485
5.19,4,0.355469425539923,0.145273191523993,-0.0779747917111728,0.22156437879574,0.107735424868516,-0.0790225938698487,0.0394807784254484,-0.153416547135838,0.00428276416313161,-0.0303811761833552,0.696803694774214,0.0180516983550523,0.529877620777001,0.174504837183752,-0.0782392854599648,-0.076133508306121,0.600054933317057
5.22,4,0.402289905494349,0.161798964405245,-0.0881527146214179,0.258710491246274,0.128955961790826,-0.0894039735099338,0.0389314452548804,-0.158177434614093,-0.000335703604235969,-0.0387025564338104,0.794620604063031,0.0340077923927529,0.574022644734031,0.171814121931618,-0.0879899492375459,-0.0913622445346436,0.603259376812037
5.25,4,0.45847448143966,0.189769178339997,-0.101840266121403,0.296528010905281,0.122816654967905,-0.0952330088198492,0.0449944558041119,-0.161188594215725,-0.00184128340505183,-0.0442365794854579,0.896104820907214,0.0612303028453424,0.625141148106326,0.166712444430881,-0.102476068402153,-0.097837254961801,0.597715180923897
5.28,4,0.519704784285002,0.206300037639495,-0.112923571479436,0.332458469395021,0.118981495610421,-0.100182093773207,0.0642821537929421,-0.160415458642333,0.00808740501113926,-0.0365306558427686,0.929583625802383,0.0400301115960163,0.680115156509089,0.160466322824793,-0.113193151646474,-0.101952167322815,0.577298298084455
5.31,4,0.584175135553046,0.2188177129429,-0.120995717235837,0.36817529831843,0.118981495610421,-0.106972462131616,0.0556352427747429,-0.159540594704021,0.00259407330545976,-0.0123549099195329,1.01211076184372,0.0396130252998444,0.738298694825078,0.15418968270923,-0.119942828658915,-0.108427177749972,0.565274005350912
5.34,4,0.653029979349142,0.232688375499741,-0.127394431389304,0.404009114861497,0.121702729372031,-0.116005940936511,0.0850347402366202,-0.110588905504522,0.00310271513005971,-0.0344401379436628,1.05039114556312,0.0841649627165543,0.800907417015086,0.147963906776126,-0.12856939400413,-0.115014089378541,0.519282611570584
5.37,4,0.720933662933236,0.231549017812637,-0.129317097486292,0.441073844620095,0.124113691620635,-0.120893988870917,0.0685343994465977,-0.171300393688772,0.0171819208349864,-0.0417188024536882,1.08393098747724,0.0411186051006602,0.864111250139876,0.143279315571561,-0.128833887752922,-0.124357839696443,0.456628111616362
5.4,4,0.793191320535905,0.247947630237739,-0.136310922574541,0.472345143996501,0.097608366140731,-0.119627470727663,0.0911994791507716,-0.161025828831853,-0.0119530828780989,-0.032191941078931,1.17565436770735,0.076336965035961,0.932315032400484,0.139205094556515,-0.136453342285429,-0.121585741752373,0.401003041678111
5.43,4,0.871954507075208,0.268883327738273,-0.14734845016836,0.494944100263477,0.0709199296039715,-0.111626534826706,0.11296934924365,-0.181595304218675,0.000295012258267973,0.0183568834498123,1.24583676666565,0.144876450900805,1.00525935646636,0.133396404919584,-0.148482721437218,-0.115405743583483,0.33097323526719
5.46,4,0.952630186875006,0.277148757388023,-0.155084892320526,0.50478123315124,0.0205135247861161,-0.0971811070080671,0.126112653991312,-0.148004598122094,0.0145573290200507,-0.0533158360545671,1.133508306121,0.0823185928932564,1.07805108798486,0.125461592455824,-0.15566474400057,-0.101621550136825,0.212240974150822
5.49,4,1.02133752454197,0.23652862127547,-0.137516403698843,0.497065136672058,-0.0355845820490127,-0.0754875331888791,0.132196010213528,-0.097954242581459,0.0500401827041434,-0.189367351298563,0.782545447147028,-0.0893938006734418,1.13552252774641,0.114271472314625,-0.138370921964171,-0.0794549394207587,0.0851212093468022
5.52,4,1.06553341268146,0.157775607572659,-0.0822779015472884,0.471597440514339,-0.097323526718955,-0.0483158869187496,0.116122928556169,-0.086703085421308,0.02127140110477,-0.262565996276742,0.37059134698528,-0.263252662739952,1.16894538204087,0.103478092796614,-0.0620797346924243,-0.0178482416252124,0.0254117455570137
5.55,4,1.107435326192,0.151432844019898,-0.00595110934781945,0.435814488153732,-0.11340169479456,-0.00397757906837163,0.137628304900255,-0.185216834009827,-0.0155542669962666,-0.202439446190781,0.211289813938821,-0.188217820774967,1.184993031607,0.0776136560157069,-0.00859096041749321,0.0466017639698477,0.00701925717947935
5.58,4,1.14159571113213,0.128406628620258,-0.0131941689301228,0.411450544755394,-0.0472731711783197,0.0264290292062136,0.00668355357524339,-0.149754325998718,-0.0135603910438348,-0.174804935860266,-0.104759870194606,-0.0401165807061983,1.18918424024171,0.0476648253832616,-0.0147709585863826,0.0345825576545508,0.00273140659810175
5.61,4,1.14948983224993,0.0428429008860541,-0.00707012136193935,0.412478001241086,0.0290027568386893,0.0126753542690308,-0.0231228573463139,-0.119134088157801,-0.0176498713136184,0.0192622658976002,-0.494181137526576,-0.0649077832372,1.16970325835953,0.0202846359650461,-0.00351980142623168,0.0032349620044557,0.00184636982329783
5.64,4,1.14477980895413,0.00138859218115787,-0.0269173253578295,0.414080222988576,0.0076143681142613,-0.0282499669382814,-0.0127058727785068,-0.122328358816289,-0.00658182521032339,0.0847142958871222,-0.778221991637928,0.00134790083518988,1.13063956623025,-0.0139011810663167,-0.0560675883256528,-0.112521744438002,0.00167851802117985
5.67,4,1.09514653970967,-0.157561978006327,-0.0890835291604358,0.358287301248207,-0.271294289986877,-0.107420066937264,-0.188655252744123,0.00686666463209937,0.00411999877925962,0.0149133782972706,-1.28781497644988,-0.010656046225369,1.07161676890367,-0.0232805363119399,-0.0919726147241635,-0.121875667592395,0.00167851802117985
5.7,4,1.0045116529842,-0.302697836237678,-0.0533361817275511,0.229173660491755,-0.460081789605396,-0.0145318969288207,-0.142470575070447,-0.0399283832310963,0.0132755516220588,0.244265063427636,-2.15309101636809,-0.0525884782453892,0.942050436923327,-0.0622425000762963,-0.0551622058778649,0.0297352010661133,0.00167851802117985
5.73,4,0.892457859024832,-0.380250455234433,-0.032385224972279,0.0959145888648132,-0.448118533890805,-0.00377412233853165,-0.0621051667836543,-0.180822168645283,0.0228380179245379,0.010381379640085,-2.35039318013042,-0.0464949491866817,0.773898536128829,-0.118299915565457,-0.0319325337483851,0.103198339793085,0.00167851802117985
5.76,4,0.763710440382092,-0.436292611468856,-0.0178177231157364,-0.0065665659555854,-0.299167861974954,0.0795871862951547,0.00829086174097924,-0.188065228227587,0.00991851557969909,0.00503046764529354,-2.6706951099175,-0.0951974038921272,0.622262235379091,-0.141214229763685,-0.00861130609047721,0.119754631183813,0.00167851802117985
5.79,4,0.626987517929624,-0.456277148757388,0.00593076367483545,-0.0283415224667094,-0.0155644398327586,0.0417035431989502,0.131178726564328,-0.371929074983978,0.00900296029541917,0.0188350067649363,-2.58390046896776,-0.0166631061738945,0.460412406791386,-0.166325876644185,0.00790938037252927,0.0319833979308451,0.00167851802117985
5.82,4,0.484354177475305,-0.471516057822403,0.0239061657561978,-0.0124362926114689,0.0557420575579089,-0.00367748039185766,0.0693075350199896,-0.316955066581215,0.00387585070345164,0.021261228268278,-2.35879085665456,0.0949125644703513,0.315195165868099,-0.168940295622628,0.0258491775261696,-0.0136214280627867,0.00167851802117985
5.85,4,0.355143894772179,-0.43109937843969,0.0305541144037192,-0.00665303506576739,0.00957263913897112,-0.00210577715384381,0.0969369589322591,-0.332987456892605,-0.000661234371979939,0.0602435377056185,-1.96868800927763,0.187861771497747,0.184982858770511,-0.169932147180598,0.0334381135492009,-0.0011240984323659,0.00167851802117985
5.88,4,0.249315876745913,-0.356608783227027,0.032161422569455,-0.00701925717947935,0.00126651814325388,0.00386567786695964,0.101413006988739,-0.288532161422569,-0.00609352905870744,0.0863012583798741,-1.61028372040976,0.304584897406944,0.0770490635904009,-0.172037924334442,0.0332651753288369,0.00421664072593361,0.00167851802117985
5.91,4,0.17085787530137,-0.26637063712475,0.0269834487950275,-0.00630207220679342,0.000340790022481969,0.00284839421775974,0.0735597806736452,-0.21825820693584,-0.0122989593188269,0.12834050518306,-1.24115726187933,0.378490554521317,-0.00613930682292144,-0.176900540177618,0.0269783623767815,0.0032756533504237,0.00167851802117985
5.94,4,0.116372163050223,-0.187770215969319,0.0201829076001261,-0.00640888698995941,0.000152592547379986,0.00342315947955769,0.0740277311522772,-0.195450707520778,-0.00902330596840317,0.149367758212022,-0.896964425590787,0.398571733756523,-0.0694652139856156,-0.185740735089165,0.0192215745516322,0.00350962858973968,0.00167851802117985
5.97,4,0.076204718161565,-0.136412650939461,0.0159611804559465,-0.0064953561001414,0.000152592547379986,0.00369782606484166,0.0797855566067487,-0.180232144128747,-0.00011190120141199,0.169555752230394,-0.584810937833796,0.344340342417676,-0.113518682414218,-0.189621672210863,0.0150812300993886,0.00350962858973968,0.00167851802117985
6,4,0.0475325785088656,-0.0986307362081769,0.0122124902086449,-0.0065614795373394,0.000152592547379986,0.00307219662058372,0.0615354879401023,-0.161127557196773,0.00586972665588346,0.174906664225186,-0.342081972716453,0.16940824610126,-0.135212256233406,-0.182673624886827,0.0114240953805149,0.00350962858973968,0.00167851802117985
6.03,4,0.0254320912299977,-0.0750704468927071,0.0102287870927051,-0.0065665659555854,0.000152592547379986,0.0032095299132257,0.0578529211299987,-0.154210028382214,0.0116072064373709,0.174611651966918,-0.127485986917732,-0.087216813664154,-0.115421002838221,-0.140736106448561,0.0097659230323191,0.00350962858973968,0.00167851802117985
6.06,4,0.011240984323659,-0.0495213680430514,0.00826034323150324,-0.00671407208471938,0.000152592547379986,0.00384533219397565,0.0581174148787907,-0.15276548560035,0.0117903174942269,0.176915799432356,0.0786461989196448,-0.280353200883002,-0.0591601306192206,-0.0702943001597135,0.00716676330861334,0.00350962858973968,0.00167851802117985
6.09,4,0.00535091199479151,-0.0211035493026521,0.00459812209438358,-0.00671407208471938,0.000152592547379986,0.00361135695465967,0.0661743013804539,-0.156610817794326,0.00936918240913114,0.166300444552955,0.30423393454797,-0.286151717683442,-0.0229244870347199,-0.0281787570828374,0.00332143111463769,0.00350962858973968,0.00167851802117985
6.12,4,0.00120039470605589,-0.0143030081077507,0.000274666585283975,-0.00674967701244138,0.000152592547379986,0.0032756533504237,-0.217057812229784,-0.188105919573555,0.098218736330251,-0.0400708029419843,0.192846461378826,-0.188777326782027,-0.00425733207190161,-0.00531530706706951,0.00162765383871985,0.00350962858973968,0.00381990010274565
6.15,4,-0.021454512161626,-0.075909705903297,0.00786360260831528,-0.0124108605202389,-0.0245979186376537,0.0054424675232195,-0.0640176600441501,-0.206193222856329,0.02167831456445,-0.0114342682170069,0.0687175105034537,0.0637735119683421,-0.000447604805647959,0.0210882900479141,0.0126346629230628,0.0123701691742709,0.0876491592150639
6.18,2,-0.0405184077476323,-0.064770449944558,0.0156254768517106,-0.0361542608925647,-0.0885850601723279,0.0251269061352377,-0.0710165715506455,-0.156102175969726,0.00446587521998759,-0.0119734285510829,0.0995106865647348,0.311766919970295,-0.00185145624154383,0.0388500625629444,0.0153609831029186,0.0473952452162236,0.232479832351655
6.21,2,-0.0528682312489191,-0.043031098361156,0.0153711559394106,-0.0612913398642944,-0.0689514857427696,0.0508336639505193,-0.054577267779575,-0.162002421135085,-0.0201523890906501,0.053966897590055,0.195267596463922,0.226905117954039,-0.0127974283069348,0.0401114942879523,0.0189926857305623,0.0451979125339518,0.352000488296152
6.24,2,-0.0577308470920947,-0.0167037975198625,0.0163477482426425,-0.0822270373648284,-0.0707215592923775,0.0363984089683727,-0.0744753359579251,-0.159235409609261,-0.0274768313648895,0.00572730694499547,0.230221462650431,0.121951963866085,-0.010569577115187,0.0472629983418277,0.011159601631723,0.0387585070345164,0.452996408988718
6.27,2,-0.0633564256721702,-0.0182093773206783,0.0097557501958271,-0.104393648080894,-0.0699585965554776,0.0427767774488561,-0.0533972187465031,-0.151707510605182,-0.0124210333567309,0.0103152562028871,0.266131575467188,0.0451165298420158,-0.0368867051199886,0.0265307575711336,0.010366120385347,0.0442823572496719,0.499740592669454
6.3,2,-0.0627765739921262,-0.000254320912299977,0.0102135278379671,-0.123406679484441,-0.0601926735231585,0.0454624062827438,-0.0473748995432396,-0.157567064424573,-0.011240984323659,-0.011352885525071,0.282815027314066,0.0923795281838435,-0.0550045269122389,0.00783308409883928,0.021617277545498,0.0498774173202714,0.560055340230516
6.33,2,-0.0587379579048026,0.0161442915128025,0.0346690267647328,-0.136712749615975,-0.0355642363760287,0.0484939115573595,-0.0474969735811436,-0.160781680756045,-0.0142521439252907,-0.0189113030386263,0.304371267840612,0.0713624479913734,-0.054424675232195,0.00441501103752759,0.0300200404878892,0.0458184555599638,0.659504989776299
6.36,2,-0.0605995869828384,-0.00404878892381563,0.0320139164403211,-0.148116499323506,-0.0388093712169764,0.0449741101311279,-0.0444044312875759,-0.156346324045534,-0.0191351054414502,-0.0097862687053031,0.271624907172867,0.0115766879278949,-0.0478631956948556,0.0127974283069348,0.0373851741080966,0.0472935168513037,0.771925005849381
6.39,2,-0.0598569699189225,0.0032959990234077,0.0371715445417646,-0.156010620441298,-0.0160527359843745,0.043214209418012,-0.0208441419721061,-0.172704245124668,-0.00534073915829951,0.000193283893347982,0.288755963825393,-0.00689718314157537,-0.0396130252998444,0.0203151544745221,0.0348012736391288,0.0395112969349244,0.869543544826604
6.42,2,-0.0606707968382824,-0.000559506007059949,0.0368154952645446,-0.154250719728182,0.00984730572425509,0.0300912503433332,-0.0352895697907448,-0.161269976907661,-0.00794498530025127,0.0308338674072492,0.28415784173101,0.0022176783552558,-0.0337331258074689,0.0270088808862575,0.0374767296365246,0.0240078941211178,0.945778781497645
6.45,2,-0.0611184016439304,0.000152592547379986,0.0371715445417646,-0.149072745953754,0.0183416241950743,0.021434166488642,-0.032237718843145,-0.157973977884253,-0.0114851323994669,0.0270902635781935,0.268705303099663,0.00703960285246335,-0.0388602353994364,0.0223598946094139,0.0372325815607166,0.0176600441501104,0.987009287799717
6.48,2,-0.0614744509211503,0.000152592547379986,0.0373953469445886,-0.137852107303079,0.0386262601601204,0.0137841934466587,-0.0333770765302489,-0.157648447116509,-0.0142928352712587,0.0184636982329783,0.260943428856268,0.00999989827163508,-0.043539740185756,0.0179957477543463,0.0375682851649525,0.00564592425305948,1.00221767835526
6.51,2,-0.0617084261604663,0.000152592547379986,0.0376700135298725,-0.124495172989085,0.0392671488591164,0.00136316008992787,-0.0342722861415449,-0.158991261533453,-0.0166529333374025,-0.00265511032441176,0.2578508865627,0.00537125766777551,-0.0500503555406354,0.0117292804752749,0.0376903592028565,0.00116987619657989,1.01043733024079
6.54,2,-0.0619118828903063,0.000152592547379986,0.0376598406933805,-0.110894090599282,0.0422172714417961,-0.000447604805647959,-0.0287382630898974,-0.155532497126174,-0.0146997487309386,-0.0272937203080335,0.2619200211595,-0.00483209733369956,-0.0527563300475071,0.00920641702525915,0.0376903592028565,-0.00118004903307189,1.01281777397992
6.57,2,-0.0620746482741783,0.000152592547379986,0.0376903592028565,-0.0960112308114872,0.0473850723797316,-0.00381481368449965,-0.0277209794406975,-0.156102175969726,-0.011240984323659,-0.0342315947955768,0.274157943459375,-0.00789412111779127,-0.0511286762087873,0.011037527593819,0.0376903592028565,-0.00727357809177933,1.01308226772871
6.6,2,-0.0622475864945423,0.000152592547379986,0.0380057171341085,-0.0819421979430524,0.0414034445224362,-0.00632750429802342,-0.0232449313842179,-0.158950570187485,-0.0120548112430189,-0.043885616626484,0.285571866003398,-0.0155542669962666,-0.0497349976093834,0.0125837987406028,0.0381176183355205,-0.00752789900407931,1.0141097242144
6.63,2,-0.0623289691864783,0.000152592547379986,0.0381583096814885,-0.06523840042319,0.0567644276253548,-0.00884019491154719,-0.0226345611946979,-0.159967853836685,-0.010630614134139,-0.0440585548468479,0.30369986063214,-0.0156153040152186,-0.0428886786502681,0.0195318460646382,0.0381481368449965,-0.0166631061738945,1.01546271146784
6.66,2,-0.0624103518784143,0.000152592547379986,0.0383007293923765,-0.0495111952065594,0.04340749331136,-0.0151371807000946,-0.0242215236874498,-0.159154026917325,-0.011078218939787,-0.0459405295978678,0.307402773115228,-0.0236111534979298,-0.0391145563117364,0.0233364869126459,0.0381481368449965,-0.0151982177190466,1.01272621845149
6.69,2,-0.0624103518784143,0.000152592547379986,0.0381277911720125,-0.0360016683451847,0.0467340108442437,-0.0128076011434268,-0.0122175766268909,-0.162327951902829,-0.00928779971719515,-0.0461846776736757,0.334899950153101,-0.0140588600319427,-0.0271411277606535,0.0353811253191727,0.0381481368449965,-0.0127465641244748,1.01579841507207
6.72,2,-0.0624103518784143,0.000152592547379986,0.0383515935748365,-0.0125329345581428,0.0792972604551327,-0.0236620176803898,-0.0178736737164424,-0.157689138462477,-0.00989816990671509,-0.0494094668416395,0.369884334849086,-0.0127262184514908,-0.0161341186763105,0.0463881344035157,0.0381481368449965,-0.0375784580014445,1.01543219295836
6.75,2,-0.0602028463596505,0.00722271390931934,0.0352997426272368,0.00641905982645141,0.0515457625049593,-0.0331532741274249,-0.0184840439059623,-0.162531408632669,-0.0100202439446191,-0.0569577115187028,0.388856674906664,-0.0260322885830256,-0.00367239397361166,0.0566525264239428,0.0338043356629129,-0.0313730277413251,1.01275673696097
6.78,2,-0.0585345011749626,0.00570696127201147,0.0334991505681529,0.0224514501378419,0.0549434898932869,-0.032227546006653,-0.00021362956633198,-0.161758273059277,-0.0097760958688111,-0.0728680277921893,0.427167577135533,-0.0193894263537502,0.0164901679535305,0.0752484715313171,0.0335500147506129,-0.0363984089683727,1.0122074037904
6.81,2,-0.0518407747632272,0.0209865616829941,0.0267952513199255,0.0464084800764997,0.0789310383414207,-0.0600095624663025,-0.0142928352712587,-0.163630074973805,-0.00635802280749942,-0.0698161768445896,0.528224534847051,-0.0262052268033896,0.0448215175837479,0.0968962675862911,0.0228278450880459,-0.064668721579638,1.00299081392865
6.84,2,-0.0396130252998444,0.0392874945321004,0.0128076011434268,0.0701620532853175,0.0778120263273008,-0.0796940010783207,-0.0131941689301228,-0.16900133264158,-0.00574765261797947,-0.064790795617542,0.689759005503505,-0.0425631478825241,0.0810266426587725,0.120853297524949,0.00624612160608743,-0.0808333587654246,0.996663309630624
6.87,2,-0.0259712515640736,0.0342112491225929,0.000854518265327921,0.0987070324818669,0.0941496017334513,-0.112297942035178,0.00576799829096347,-0.160781680756045,-0.00273649301634775,-0.0678528194016337,0.814396598203477,-0.0133772799869788,0.128279468164108,0.154474522131006,0.00065106153548794,-0.115064953561001,0.983469140700502
6.9,2,0.010478021586759,0.103630685343994,-0.0298877936134933,0.126183863846756,0.0804671366517126,-0.137740206101667,-0.00200404878892382,-0.186376537369915,0.000722271390931934,-0.0723797316405733,0.788567766350291,-0.0856247647531561,0.174769330932544,0.164474420402641,-0.0501520839055554,-0.142236599831131,0.961383912676372
6.93,2,0.0398266548661763,0.0816878770307525,-0.0691447696361176,0.146417635629343,0.0551062552771589,-0.149957782728558,0.0522782067323832,-0.15642770673747,-0.00224819686473179,-0.110395621611174,0.688172043010753,-0.0205593025503301,0.220842107404808,0.181096835230567,-0.0657063509018219,-0.153243608915474,0.906847336242765
6.96,2,0.0688904487238177,0.0847702464878282,-0.0345062613808608,0.158218125960061,0.0268461155023855,-0.15591906491287,0.00377412233853165,-0.22120832951852,0.00357066560869167,-0.124698629718925,0.676381725516526,-0.170140690328684,0.26019063895586,0.191401918596962,-0.0252388073366497,-0.165766370637125,0.807153538621174
6.99,2,0.118920458591469,0.156356496882026,-0.0170903653065584,0.151687164932198,-0.0464084800764997,-0.176010416984568,-0.00102745648569191,-0.253802097638885,-0.00774152857041129,-0.117903174942269,0.799574775434634,-0.0842310861537523,0.3045136875515,0.185674611651967,-0.00770083722444329,-0.187922808516699,0.656595558539588
7.02,2,0.196040732037314,0.252428764712465,-0.00422172714417961,0.118564409314249,-0.142002624591815,-0.17296873887346,-0.0249539679148737,-0.25652841781874,0.0282703126112654,-0.0955229346598712,0.894110944954782,-0.185755994343903,0.355560981068351,0.159581286049989,0.00948108361054313,-0.184860784732607,0.525182856735944
7.05,2,0.295124159469385,0.335637480798771,0.00288908556372773,0.0572120324310027,-0.229839981281981,-0.148701437421796,-0.021393475142674,-0.26527705720186,-0.00906399731437117,-0.138793094678589,1.0614134139022,-0.239193904436374,0.413780124312062,0.118722088279875,0.0139978230129907,-0.149505091504664,0.439003672393974
7.08,2,0.409721162551754,0.398103783277891,-0.000610370189519944,-0.0172175257627084,-0.272565894548377,-0.0985290078432569,-0.0377107048758405,-0.236569312621438,-0.00615456607765943,-0.0724916328419853,1.10665201778212,-0.226254056418551,0.477843562120426,0.0682648192795597,0.00124617247026989,-0.0923591825108595,0.298008158614867
7.11,2,0.535777865942361,0.429151280251473,-0.010442416659037,-0.100456760358491,-0.283349101229896,-0.0450402335683259,0.0118920458591469,-0.199296039714754,-0.0065614795373394,-0.098213649912005,1.01801609342733,-0.275943276263721,0.54272082684815,0.00710063987141535,-0.011322367015595,-0.033082064271981,0.11337626270333
7.14,2,0.656931262143824,0.41618600014242,-0.0207729321166621,-0.181040884629861,-0.253339233578499,0.0443433942686239,-0.00477106031474756,-0.124993641977192,-0.0183416241950743,-0.142231513412885,0.71362956633198,-0.28019043549913,0.595049897762993,-0.0616677348144983,-0.0267087822097435,0.101026439202043,0.0260068564917956
7.17,2,0.751436913154495,0.328058717612232,-0.0309305093539232,-0.193751843826614,0.053977070426547,0.101941994486323,0.00149540696432386,-0.0785037792087568,0.02188177129429,-0.350688192388684,0.309874772382783,-0.247642445142979,0.625481938128808,-0.125715913368124,-0.032827743359681,0.123243914100569,0.00664286222927539
7.2,2,0.807418032369966,0.19935199031546,-0.0245216223639637,-0.123406679484441,0.291126234728029,0.0477309488204596,-0.0569984028646708,-0.0153101189204586,-0.00833155308694723,-0.356969918922493,-0.257311726228624,-0.478977833389284,0.625883765170242,-0.181279946287423,-0.0246589556566057,0.0467950478631957,0.00264493748791976
7.23,2,0.827071952472508,0.0566932177699108,-0.0458693197424238,-0.0118208360037029,0.33117669199703,-0.010457675913775,-0.0521764783674632,-0.0473748995432396,-0.0100202439446191,-0.421257159133681,-0.842493972594378,-0.480188400931832,0.585904517756686,-0.240892768130538,-0.0681274859869177,-0.0409660125532802,0.00177007354960784
7.26,2,0.771762240465509,-0.182205674408195,-0.106224758649454,0.0472019613228757,0.157943459374777,-0.0494094668416395,-0.206274605548265,0.0630614134139022,-0.0176702169866024,-0.502507604195278,-1.66770429598885,-0.571774447869299,0.441785943174535,-0.32975249488815,-0.112755719677318,-0.0668151900794498,0.00167851802117985
7.29,2,0.648172449924212,-0.414095482243314,-0.0488804793440555,0.0469883317565437,-0.0291756950590533,-0.0286263618884854,-0.125990579953408,-0.120660013631601,-0.0197861669769382,-0.47804193243202,-2.53334147160253,-0.849960834579506,0.282815027314066,-0.365143793043814,-0.0506403800571713,-0.0134383170059308,0.00167851802117985
7.32,2,0.49493901384523,-0.515691600288909,-0.0116377249468469,0.0280973743909014,-0.0585141555019786,0.00381481368449965,-0.0420443332214321,-0.280129398480178,-0.0370392976673686,-0.549424726096377,-2.88316497288939,-1.00430310983612,0.119998779259621,-0.374706259346294,-0.00636819564399141,0.00555436872463149,0.00167851802117985
7.35,2,0.337127801344849,-0.527776930041403,0.0206915494247261,0.0195827102470982,-0.0168665629037344,0.00144454278186387,0.0798669392986846,-0.437401450646484,-0.0619017100538143,-0.378480381684825,-2.57384970651367,-1.11746574297311,-0.0480666524246956,-0.385092725404625,0.0240384126305938,-0.000834172592343923,0.00167851802117985
7.38,2,0.194107893103834,-0.477675710318308,0.0380565813165685,0.0167241431928465,-0.00772118289742729,-0.00198370311593982,0.0856858017721081,-0.359111301004059,-0.0935188858709474,-0.291584012370169,-2.13761813206376,-0.896898302153589,-0.188105919573555,-0.382162948494929,0.043173518072044,-0.00352997426272368,0.00167851802117985
7.41,2,0.0886664428642638,-0.356323943805251,0.0401725313069043,0.0151982177190466,-0.00345876440727968,-0.00305185094759972,0.0893887142551958,-0.293516851303649,-0.0821253089999085,-0.134718873663544,-1.6025371054211,-0.494348989328694,-0.299447614978484,-0.38802250231432,0.043539740185756,-0.00489313435265155,0.00167851802117985
7.44,2,0.0239875484481338,-0.219560330006816,0.033102409944965,0.0130720948922188,-0.00421155430768761,-0.0011291848506119,0.0668457085889258,-0.233212276579079,-0.0718303984700054,-0.0613930682292144,-1.12886949268064,-0.2565792820012,-0.379528183843501,-0.403414003926715,0.0332041383098849,-0.00239061657561978,0.00167851802117985
7.47,2,-0.00701925717947935,-0.107028412732322,0.0227973265785699,0.0128076011434268,0.000152592547379986,-0.00270597450687175,0.0573239336324147,-0.204524877671641,-0.0682088686788537,0.0477919858394116,-0.751660715557319,-0.318358918017111,-0.434471673736788,-0.427259132663961,0.0201727347636341,-0.00411999877925962,0.00167851802117985
7.5,2,-0.0190130314035463,-0.0396740623187963,0.0131127862381868,0.010630614134139,-0.0075991088595233,-0.00127160456149988,0.0491856644388155,-0.188248339284443,-0.0584429456465346,0.179601428266243,-0.500707012136194,-0.63004445529547,-0.471215959145889,-0.451958779666534,0.010406811731315,-0.00162765383871985,0.00167851802117985
7.53,2,-0.0231432030192979,-0.011139255958739,0.00769066438795129,0.0100304167811111,7.12098554439934e-05,-0.0021464684998118,0.0447096163823359,-0.169937233598844,-0.0501012197230954,0.290495518865525,-0.355988240201015,-1.02221747489853,-0.49621061840673,-0.472843612984608,0.00585955381939146,-0.00314340647602771,0.00167851802117985
7.56,2,-0.0265205847346416,-0.00794498530025127,0.00614439324116743,0.0098066143782871,0.000152592547379986,-0.00256355479598376,0.0616779076509903,-0.15235857214067,-0.0482701091545356,0.374828333384198,-0.262998341827652,-1.26351715648874,-0.451643421735282,-0.424888861761325,0.00576799829096347,-0.00320444349497971,0.00167851802117985
7.59,2,-0.0335296690776289,-0.02127140110477,0.00679545477665537,0.00947091077405113,0.000152592547379986,-0.00271614734336375,0.0734377066357412,-0.144301685639007,-0.0442823572496719,0.423657948545793,-0.180893378500727,-1.2868434705649,-0.346029033275348,-0.312255216121911,0.00854518265327921,-0.00296029541917173,0.00167851802117985
7.62,2,-0.0470900601214637,-0.0428785058137761,0.0115461694184189,0.00922676269824315,0.000152592547379986,-0.00284839421775974,0.0788089643035167,-0.145603808709983,-0.0393180130415764,0.475203711050752,-0.109856461277098,-1.18685466068504,-0.256406343780836,-0.209112826929533,0.0143843907996867,-0.00274666585283975,0.00167851802117985
7.65,2,-0.0594500564592425,-0.0401623584704123,0.0158187607450585,0.00901313313191117,0.000152592547379986,-0.00281787570828374,0.103223771884315,-0.160334075950397,-0.0272326832890815,0.505701874853765,0.0788293099765007,-1.01247189753919,-0.241503138320058,-0.181808933785007,0.0169581184321624,-0.00274666585283975,0.00167851802117985
7.68,2,-0.0609047720775984,-0.00390636921292764,0.0144047364726707,0.0087282937101352,0.000152592547379986,-0.00278735719880774,-0.12839136936552,-0.206559444970041,0.186112043621123,0.269397055981119,0.0916063926104516,-0.946287423322245,-0.233100375377667,-0.17195145522426,0.0117801446577349,-0.00274666585283975,0.00167851802117985
7.71,2,-0.0625120802433343,-0.00421155430768761,0.011088391776279,0.00590024516535946,-0.00963367615792311,-0.000162765383871985,-0.0940885647144993,-0.139093193355103,0.149896745709606,0.275429548020875,-0.0414441358684042,-0.913815729239784,-0.227230648721783,-0.164494766075625,0.011352885525071,-0.000132246874395988,0.0199997965432702
7.74,2,-0.0627155369731742,-0.000223802402823979,0.011159601631723,-0.00335703604235969,-0.0378734702597125,0.00458794925789158,0.0153711559394106,-0.190364289274778,-0.00196335744295582,0.0823999755851924,0.0465814182968637,0.0895107882930998,-0.213049714651936,-0.150100202439446,0.010834070863979,0.00940987375509914,0.13093457848852
7.77,2,-0.0624510432243823,0.000925728120771915,0.0174972787662384,-0.0264086835332296,-0.0844955799025442,0.0192978708253222,-0.0450148014770959,-0.155369731742302,0.0279040904975534,-0.0306609291868852,0.0342824589780368,0.560553809218625,-0.210862554806157,-0.14818770917895,0.0272225104525895,0.0441602832117679,0.248135827712841
7.8,2,-0.0584327728100426,0.0143335266172267,0.0319630522578611,-0.0471714428133997,-0.0518407747632272,0.0507624540950753,-0.0475376649271116,-0.178197576830348,-0.010427157404299,0.102755821405683,0.0128686381623788,0.179987996052939,-0.215450504064048,-0.156814274524166,0.0287687815993734,0.0492975656402275,0.354838709677419
7.83,2,-0.0593991922767825,-0.00201422162541581,0.0333770765302489,-0.0566118350779748,-0.0279549546800134,0.0365916928617206,-0.0566118350779748,-0.165461185542365,0.00251269061352377,0.0784732606992808,-0.0177821181880144,0.0454115421002838,-0.220597959329,-0.160995310322377,0.0368154952645446,0.0347605822931608,0.478621784112064
7.86,2,-0.0586057110304066,0.00462864060385957,0.0351064587338888,-0.0714438306833094,-0.0491754916023235,0.0466424553158157,-0.0586057110304066,-0.141860204880927,0.0230618203273619,0.0913622445346436,0.00965402183090711,0.0665405234941659,-0.248654642373933,-0.189814956104211,0.0333160395112969,0.0515762810144353,0.553219194107893
7.89,2,-0.0591550442009746,0.000478123315123956,0.0353099154637288,-0.0834986419263283,-0.032858261869157,0.0490534175644195,-0.0512405774101993,-0.161880347097181,0.00584938098289946,0.0688192388683737,0.0266833501185135,0.0470188502660197,-0.252998443556017,-0.193639942625202,0.0357676931058687,0.0485447757398195,0.623950926236763
7.92,2,-0.0595314391511785,0.000152592547379986,0.0360830510371207,-0.0929288613544114,-0.0293893246253853,0.0486363312682475,-0.0569780571916868,-0.156305632699566,0.010488194423251,0.0835495061087883,0.0293384604429253,-0.0440992461928159,-0.26075014496292,-0.200984730572426,0.0361644337290567,0.0493382569861955,0.682841476688945
7.95,2,-0.0597755872269865,0.000152592547379986,0.0362763349304687,-0.102308216600035,-0.0285551520330414,0.0518102562537512,-0.0409456668802962,-0.165664642272205,0.0065411338643554,0.0686971648304697,0.00115970336008789,-0.0699077323730176,-0.25998718222602,-0.200008138269194,0.0364899644968006,0.0529801324503311,0.714346751304666
7.98,2,-0.0598976612648905,0.000152592547379986,0.0368460137740206,-0.10930712810653,-0.0179855749178543,0.0502131209245074,-0.0357778659423607,-0.163792840357677,0.02167831456445,0.0665201778211819,-0.0289010284737693,0.0632852158167262,-0.253130690430413,-0.192999053926206,0.0367748039185766,0.0504979603462834,0.703756828516495
8.01,2,-0.0601774142684205,0.000152592547379986,0.0366934212266406,-0.110410880865912,-0.000381481368449965,0.043336283455916,-0.0505691702017273,-0.158177434614093,-0.00645975117241941,0.0205287840408541,-0.0350352488784448,0.0369884334849086,-0.254885504725283,-0.194448683126316,0.0367748039185766,0.0406760867132583,0.656305632699566
8.04,2,-0.0604775129449344,0.000152592547379986,0.0367544582455926,-0.110421053702404,0.000152592547379986,0.0403861608732363,-0.0585446740114546,-0.138604897203487,0.0119937742240669,0.00658182521032339,-0.0258135725984476,-0.0272733746350495,-0.267398093610441,-0.206676432589699,0.0368511001922666,0.0401318399609363,0.582115136163416
8.07,2,-0.0608030437126784,0.000152592547379986,0.0371410260322886,-0.110161646371858,0.000152592547379986,0.0405082349111403,-0.0571204769025747,-0.146132796207567,0.0087384665466272,0.000915555284279916,0.00296029541917173,-0.00165817234819585,-0.277001251258889,-0.21599475081637,0.0372325815607166,0.0397198400830103,0.538483840449232
8.1,2,-0.0610014140242724,0.000152592547379986,0.0371868037965026,-0.109932757550788,0.000152592547379986,0.0396282845545824,-0.0577105014191107,-0.147923215430158,0.0021464684998118,-0.00597145502080345,0.00201930804366181,-0.10943428856268,-0.28405611336609,-0.222815637684255,0.0372325815607166,0.0396740623187963,0.516958118432162
8.13,2,-0.0610115868607644,0.000152592547379986,0.0371613717052726,-0.10973947365744,0.000152592547379986,0.0395519882808924,-0.0504267504908394,-0.151178523107598,0.0161646371857865,-0.00582903530991546,0.00508641824599953,-0.114357941424807,-0.28667561876278,-0.225486007263405,0.0372325815607166,0.0396740623187963,0.51615955076754
8.16,2,-0.0608844264046144,0.000152592547379986,0.0371054211045666,-0.109566535437076,0.000152592547379986,0.0394756920072024,-0.0494908495335754,-0.154515213476974,0.0161849828587705,-0.000345876440727968,0.0178380687887204,-0.0252489801731417,-0.283537298704998,-0.22242906989756,0.0372325815607166,0.0396740623187963,0.518026266263822
8.19,2,-0.0601367229224525,0.00205999938962981,0.0373648284351126,-0.109454634235664,0.000152592547379986,0.0396282845545824,-0.0576291187271747,-0.157383953367718,0.0102237006744591,0.00181585131382183,0.0445621102532019,-0.0271970783613595,-0.281645151117486,-0.221315144301686,0.0368002360098066,0.0396740623187963,0.49900814844203
8.22,2,-0.0570543534653768,0.00932340464491714,0.0314594968515071,-0.10841700491348,0.00615965249590543,0.0395418154444004,-0.0616779076509903,-0.157973977884253,0.0032858261869157,0.00857061474450921,0.0829442223375144,-0.0931017995747754,-0.277754041159296,-0.220475885291096,0.0305592008219652,0.0372122358877326,0.419039480778425
8.25,2,-0.0505895158747113,0.0211493270668661,0.0256813257240516,-0.105909400718202,0.00716676330861334,0.0340332244839829,-0.0677612638732058,-0.155268003377382,0.00273649301634775,0.0139164403210547,0.124937691376487,-0.299386577959532,-0.271472314625487,-0.22067425560269,0.02178004292937,0.0348623106580808,0.285180211798456
8.28,2,-0.0414390494501582,0.0288501642913093,0.0143335266172267,-0.0992105878882209,0.0253507085380617,0.0298674479405093,-0.0722780032756534,-0.148045289468062,-0.0116682434563229,0.0694296090578936,0.137084058147933,-0.571306497390667,-0.263283181249428,-0.221610156559954,0.011230811487167,0.0235399436424858,0.164159062471389
8.31,2,-0.0363678904588967,0.0148167363505966,0.0127313048697368,-0.0876389863785719,0.0408795434430982,0.0190995005137282,-0.0771609647918129,-0.138116601051871,0.0119327372051149,0.129245887630848,0.128345591601306,-0.864421521652882,-0.255551825515508,-0.218955046235542,0.0141453291421247,0.00996937976215908,0.0603249203975545
8.34,2,-0.0307219662058372,0.010981576993113,0.0145827611112807,-0.075914792321543,0.0311085339925331,0.00155644398327586,-0.0786665445926288,-0.154983163955606,-0.0140486871954507,0.182709229814549,0.128360850856044,-1.1631875565864,-0.247566148869289,-0.21660512100589,0.0138503168838567,0.00293486332794173,0.0139876501764987
8.37,2,-0.0197200435397402,0.0237281411175878,0.00600705994852545,-0.0730206203395693,0.00599688711203345,0.0127516505427208,-0.0700399792474136,-0.149082918790246,-0.00371308531957966,0.204621519618315,0.0267850784834335,-1.40071311583809,-0.242678100934884,-0.222744427828812,0.00226854253771579,0.0266528316090375,0.00413525803399762
8.4,2,-0.0098066143782871,0.0206457716605121,-0.00398775190486363,-0.0689158808150477,0.0145675018565427,0.0199540187790562,-0.0605792413098544,-0.149184647155166,-0.00340790022481969,0.201620532853175,-0.065370647297586,-1.56954151025931,-0.24413281655324,-0.234117659026866,-0.00460320851262958,0.021383302306182,0.0021515549180578
8.43,2,-0.00595619576606545,0.00283822138126774,-0.000172938220363984,-0.0592822046571245,0.0334533728039389,0.00985239214250109,-0.0634276355276142,-0.148269091870886,-0.0158187607450585,0.207439395326599,-0.167215999837235,-1.58846807255267,-0.259315775017548,-0.253120517593921,0.00184636982329783,0.00392671488591164,0.00172429578539384
8.46,2,-0.00344859157078768,0.00021362956633198,0.000457777642139958,-0.0575375631987467,-0.00476088747825556,0.0097760958688111,-0.0448113447472559,-0.155756299528998,-0.0248725852229377,0.227301858577227,-0.17401145461389,-1.47208065024771,-0.274844609922585,-0.271202734458449,0.0021719005910418,0.0302438428907132,0.00167851802117985
8.49,2,-0.00138859218115787,0.000152592547379986,0.000457777642139958,-0.054790897345907,0.0143335266172267,0.0236009806614378,-0.0386872971790724,-0.158706422111677,-0.0271716462701295,0.233268227179785,-0.178874070457066,-1.21682383699047,-0.276604510635701,-0.275022634561195,0.00100711081270791,0.021495203507594,0.00167851802117985
8.52,2,0.000295012258267973,0.000152592547379986,0.000457777642139958,-0.0485447757398195,0.0228532771792759,0.0188146610919523,-0.0379345072786645,-0.157200842310862,-0.021657968891466,0.24008911404767,-0.168528295744702,-0.945783867915891,-0.276100955229347,-0.276253547776727,0.000167851802117985,0.0127872554704428,0.00167851802117985
8.55,2,0.00171412294890184,0.000152592547379986,0.000457777642139958,-0.0403200374360383,0.0288654235460473,0.00848923205257322,-0.0480666524246956,-0.150405387534206,-0.0163274025696585,0.239392274747968,-0.197703990803756,-0.788527075004323,-0.281136509292886,-0.282769249549852,-0.000488296151615955,0.0054577267779575,0.00167851802117985
8.58,2,0.00297555467390973,0.000152592547379986,0.000457777642139958,-0.0357524338511307,0.010976490574867,0.00572730694499547,-0.0444451226335439,-0.14971363465275,-0.0119123915321309,0.258593503626616,-0.234046449171422,-0.791426333404543,-0.291833246864223,-0.294717246009705,-0.00115970336008789,0.0139011810663167,0.00167851802117985
8.61,2,0.00394197414064964,0.000152592547379986,0.000457777642139958,-0.0331939654733929,0.00799584948271126,0.0119429100416069,-0.0340077923927529,-0.153131707714062,-0.010671305480107,0.287402976571958,-0.253491826125879,-0.864482558671834,-0.295449690237129,-0.299264503921629,-0.00178024638609984,0.0170649332153284,0.00167851802117985
8.64,2,0.00446078880174159,0.000152592547379986,0.000457777642139958,-0.0283059175389874,0.0181839452294483,0.011007009084343,-0.0238756472467218,-0.153253781751966,-0.00951160212001912,0.290815963215023,-0.277937152216152,-0.876140629291665,-0.290775271869055,-0.295164850815353,-0.00228888821069979,0.00807214575640126,0.00167851802117985
8.67,2,0.00398775190486363,0.000152592547379986,0.000457777642139958,-0.0245521408734397,0.0076499730419833,0.00423189998067161,-0.0229600919624419,-0.150201930804366,-0.0155746126692506,0.296426282540361,-0.355779697052929,-0.863831497136346,-0.286431470686972,-0.290337839899899,-0.00206508580787581,0.011205379395937,0.00167851802117985
8.7,2,0.000935900957263914,-0.00256355479598376,0.000376394950203965,-0.0236823633533738,0.00529496139408551,0.0117750582394889,0.021515549180578,-0.162043112481053,-0.0187281919817703,0.310612303028453,-0.325495162816248,-0.883231096326589,-0.288613544114505,-0.289442630288603,-2.03456729839981e-05,0.0167597481205685,0.00167851802117985
8.73,2,-0.00617999816888943,-0.0128482924893948,0.00689718314157537,-0.0205694753868221,0.0101626636555071,0.010467848750267,0.0300810775068412,-0.163019704784285,-0.0247098198390657,0.356791894283883,-0.141814427116713,-0.912895087537258,-0.268400118004903,-0.26199631743319,0.0103305154576251,0.00850449130731122,0.00167851802117985
8.76,2,-0.00922676269824315,-0.00168360443942585,0.0087333801283812,-0.0173497726371044,0.00847905921608122,0.00408948026978362,0.0293079419334493,-0.162246569210893,-0.021230709758802,0.383032726014995,-0.0515355896684673,-0.898815881832331,-0.246258939380067,-0.236793115024262,0.00688701030508337,0.00860113325398521,0.00167851802117985
8.79,2,-0.011398663289285,0.000127160456149988,0.00664286222927539,-0.0168309579760125,0.00021362956633198,0.00800602231920326,0.0313628549048331,-0.15744499038667,-0.0159611804559465,0.392503636789046,-0.0118818730226549,-0.876852727846105,-0.193823053682058,-0.182164983062227,0.00680054119490137,0.0147709585863826,0.00167851802117985
8.82,2,-0.0131789096753848,0.000152592547379986,0.00732444227423933,-0.0154525386313466,0.00747194840337331,0.010823898027487,0.0251981159906817,-0.186478265734835,0.0747805210526851,0.234458449049348,0.0355489771212907,-1.01975564846746,-0.171351257871232,-0.157948545793023,0.00790429395428327,0.0097557501958271,0.00167851802117985
8.85,2,-0.0147048351491846,0.000152592547379986,0.00840784936063723,-0.0156712546159246,-0.00451165298420159,0.00621051667836543,-0.0151880448825546,-0.145441043326111,0.172846664835556,0.198136336354666,0.043422752566098,-1.46743166397086,-0.152597633798232,-0.137679169082715,0.00881984923856319,0.0151422671183406,0.00167851802117985
