time,Mode,Knee_Angle,Knee_Velocity,Knee_Current,Ankle_Angle,Ankle_Velocity,Ankle_Current,Acc_X,Acc_Y,Acc_Z,Gyro_X,Gyro_Z,Gyro_Y,Shank_Angle,Thigh_Angle,Knee_Ref_Torque,Ankle_Ref_Torque,Filtered_Vertical_Load
0,1,0.0291451765495773,0.000152592547379986,-0.0173243405458744,0.0362254707480087,0.000152592547379986,-0.0314849289427371,-0.0011088391776279,-0.160130619220557,-0.000457777642139958,0.00207525864436781,-0.000885036774803919,-0.00161748100222785,-0.00857570116275521,-0.0375682851649525,-0.0173955504013184,-0.0315866573076571,0.802107811721142
0.03,1,0.0291451765495773,0.000152592547379986,-0.0174057232378104,0.0363170262764367,0.000152592547379986,-0.0314442375967691,-0.00086469110181992,-0.160171310566525,0.000356049277219967,0.00244148075807978,-0.00341807306131169,-0.00224819686473179,-0.00826034323150324,-0.0372529272337006,-0.0173955504013184,-0.0315866573076571,0.801629688406018
0.06,1,0.0291451765495773,0.000152592547379986,-0.0173650318918424,0.0363170262764367,0.000152592547379986,-0.0315764844711651,-0.00147506129133986,-0.159560940377005,-5.08641824599953e-05,0.000274666585283975,-0.00252286345001577,-0.00125125888851588,-0.00820947904904324,-0.0372122358877326,-0.0173955504013184,-0.0315866573076571,0.79996134322133
0.09,1,0.0291044852036093,0.000152592547379986,-0.0172938220363984,0.0363170262764367,0.000152592547379986,-0.0315256202887051,-0.00188197475101983,-0.160171310566525,0.00076296273689993,0.00274666585283975,-0.00247199926755577,-0.00351980142623168,-0.00880967640207119,-0.0377819147312845,-0.0173955504013184,-0.0315866573076571,0.79930010884935
0.12,1,0.0290637938576413,0.000152592547379986,-0.0173345133823664,0.0363170262764367,0.000152592547379986,-0.0315052746157211,-0.00159713532924385,-0.160212001912493,-5.08641824599953e-05,0.00280770287179174,-0.00162765383871985,-0.00101728364919991,-0.00905382447787917,-0.0380158899706005,-0.0173955504013184,-0.0315866573076571,0.801090528071942
0.15,1,0.0291451765495773,0.000152592547379986,-0.0174769330932544,0.0363170262764367,0.000152592547379986,-0.0314137190872931,-0.00147506129133986,-0.160089927874589,-0.000172938220363984,0.00386567786695964,-0.00387585070345164,-0.00277718436231574,-0.00921658986175115,-0.0382091738639485,-0.0173955504013184,-0.0315866573076571,0.80169072542497
0.18,1,0.0291146580401013,0.000152592547379986,-0.0173446862188584,0.0363170262764367,0.000152592547379986,-0.0314544104332611,-0.00135298725343588,-0.159967853836685,-5.08641824599953e-05,0.00443535671051159,-0.00347911008026368,-0.00350962858973968,-0.00908434298735517,-0.0380667541530605,-0.0173955504013184,-0.0315866573076571,0.800276701152582
0.21,1,0.0289518926562293,0.000152592547379986,-0.0171412294890184,0.0363170262764367,0.000152592547379986,-0.0313933734143091,-0.00188197475101983,-0.161269976907661,-0.000295012258267973,0.00498468988107954,-0.00622577593310343,-0.0032247891679637,-0.00966419466739911,-0.0385041861222165,-0.0173955504013184,-0.0315866573076571,0.798923713899147
0.24,1,0.0273344116540015,-0.00511693675547553,-0.0165918963184505,0.0363170262764367,0.000152592547379986,-0.0316171758171331,-0.00228888821069979,-0.159805088452813,0.000518814661091952,0.00707012136193935,-0.00694804732403536,-0.00148523412783186,-0.0102847376934111,-0.0375581123284605,-0.0143030081077507,-0.0315866573076571,0.796563615833003
0.27,1,0.0262153996398816,-0.00320444349497971,-0.0123803420107629,0.0362966806034527,0.000152592547379986,-0.0313018178858811,-0.00269580167037975,-0.159764397106845,0.000315357931251971,0.00611387473169144,-0.00604266487624744,-0.00278735719880774,-0.011118910285755,-0.0372427543972086,-0.0130415763827428,-0.0315866573076571,0.798811812697734
0.3,1,0.0262459181493576,5.08641824599953e-05,-0.0143335266172267,0.0362254707480087,0.000152592547379986,-0.0314544104332611,-0.00159713532924385,-0.160374767296365,-0.00053916033407595,0.00525935646636352,-0.00698873867000336,-0.00231940672017579,-0.0115970336008789,-0.0377412233853165,-0.0153813287759026,-0.0315866573076571,0.798740602842291
0.33,1,0.0261340169479456,0.000152592547379986,-0.0152185633920306,0.0362661620939767,0.000152592547379986,-0.0315764844711651,-0.00224819686473179,-0.160089927874589,0.000356049277219967,0.00580868963693147,-0.00754824467706331,-0.0010986663411359,-0.0119123915321309,-0.0379446801151565,-0.0154118472853786,-0.0315866573076571,0.796909492273731
0.36,1,0.0256864121422976,0.000152592547379986,-0.0153609831029186,0.0362254707480087,0.000152592547379986,-0.0315052746157211,-0.00338755455183569,-0.159235409609261,-5.08641824599953e-05,0.00498468988107954,-0.00147506129133986,-0.00239061657561978,-0.0127872554704428,-0.0383821120843125,-0.0152897732474746,-0.0315866573076571,0.793165888444675
0.39,1,0.0251269061352377,0.000152592547379986,-0.0152490819015066,0.0361644337290567,0.000152592547379986,-0.0315052746157211,-0.00363170262764367,-0.160008545182653,0.000233975239315978,0.00497451704458754,0.00561540574358348,-0.00342824589780368,-0.0136112552262947,-0.0386567786695964,-0.0149540696432386,-0.0315866573076571,0.793165888444675
0.42,1,0.0228380179245379,-0.00614439324116743,-0.0141605883968627,0.0361644337290567,0.000152592547379986,-0.0315459659616891,-0.00314340647602771,-0.160130619220557,-9.15555284279916e-05,0.00225836970122379,0.00930814539017914,-0.00477106031474756,-0.0140079958494827,-0.0367646310820846,-0.011007009084343,-0.0315866573076571,0.795088554541663
0.45,1,0.021769870092878,-0.0021973326822718,-0.00986765139723909,0.0361644337290567,0.000152592547379986,-0.0316680399995931,-0.00363170262764367,-0.159764397106845,-0.000254320912299977,0.00076296273689993,0.0140690328684347,-0.00770083722444329,-0.0138248847926267,-0.0355540635395367,-0.011088391776279,-0.0315866573076571,0.798262479527167
0.48,1,0.021352783796706,0.000101728364919991,-0.0117191076387829,0.0361949522385327,0.000152592547379986,-0.0316375214901171,-0.00192266609698782,-0.160049236528621,-0.0010681478316599,-0.00154627114678386,0.010905280719423,-0.00828068890448724,-0.0134586626789148,-0.0347198909471928,-0.0125125888851588,-0.0315866573076571,0.803694774213894
0.51,1,0.0198878953418582,-0.00299081392864772,-0.0122582679728589,0.0363170262764367,0.000152592547379986,-0.0315663116346731,0.000396740623187963,-0.159316792301197,-0.000701925717947935,-0.00742617063915932,0.00394706055889564,-0.00662251655629139,-0.0117903174942269,-0.0315764844711651,-0.011179947304707,-0.0315866573076571,0.805413983581042
0.54,1,0.0174260689107944,-0.00517797377442752,-0.00809757784763126,0.0363170262764367,0.000152592547379986,-0.0315561387981811,0.000518814661091952,-0.159723705760877,-0.000498468988107954,-0.0129907122002828,-0.0142928352712587,-0.00775170140690329,-0.010905280719423,-0.0282397941017894,-0.00677510910367138,-0.0315866573076571,0.805678477329834
0.57,1,0.0160222174748985,-0.000101728364919991,-0.00835189875993123,0.0363170262764367,0.000152592547379986,-0.0315764844711651,3.05185094759972e-05,-0.159194718263293,-0.000457777642139958,-0.0204067100029501,-0.0332956938383129,-0.00887071342102318,-0.010539058605711,-0.0264493748791976,-0.00900296029541917,-0.0315866573076571,0.809605192215745
0.6,1,0.0129195023448388,-0.00135298725343588,-0.0087079480371512,0.0363170262764367,0.000152592547379986,-0.0315052746157211,-0.00302133243812372,-0.160456149988301,0.000925728120771915,-0.0245470544551937,-0.0442416659037039,-0.00362152979115167,-0.0119734285510829,-0.0248115482039857,-0.00773135573391929,-0.0315866573076571,0.817346720786157
0.63,1,0.00660217088330739,-0.00896226894945118,-0.00065106153548794,0.0363678904588967,0.000152592547379986,-0.0315866573076571,-0.0150252794986826,-0.162246569210893,0.00129195023448388,-0.0236009806614378,0.0154423657948546,-0.00667338073875139,-0.0152897732474746,-0.021769870092878,7.12098554439934e-05,-0.0316782128360851,0.831822667114272
0.66,1,0.00139367859940387,-0.00643940549943541,0.00299081392864772,0.0376700135298725,0.00735496078371532,-0.0332753481653289,-0.0033061718598997,-0.160171310566525,0.00178024638609984,-0.0169682912686544,0.0467136651712597,-0.00204474013489181,-0.0154220201218706,-0.0167037975198625,0.00306202378409172,-0.0373750012716046,0.846308786278878
0.69,1,-0.00202439446190781,-0.00252286345001577,3.05185094759972e-05,0.0386567786695964,0.000783308409883928,-0.0372325815607166,0.000152592547379986,-0.159560940377005,0.00320444349497971,-0.0114240953805149,0.0344655700348928,0.0011393576871039,-0.0130212307097588,-0.010803552354503,0.00147506129133986,-0.0349843846959848,0.854904833114617
0.72,1,-0.00676493626717938,-0.00669372641173538,0.00629698578854742,0.0396028524633524,0.0065106153548794,-0.0355235450300607,-0.000661234371979939,-0.159764397106845,0.00198370311593982,-0.00619525742362743,0.0317087313455611,0.000356049277219967,-0.010355947548855,-0.00340790022481969,0.00746686198512731,-0.0379243344421725,0.866084780419324
0.75,1,-0.011261329996643,-0.00790429395428327,0.00923693553473515,0.0411592964466282,0.00162765383871985,-0.0396537166458123,-0.00481175166071556,-0.160985137485885,0.0021464684998118,-0.00265511032441176,0.0357982116153447,-0.00265511032441176,-0.00837224443291523,0.00293994974618773,0.011057873266803,-0.0382702108829005,0.87318542029074
0.78,1,-0.0153609831029186,-0.00827051606799524,0.0120548112430189,0.043183690908536,0.00794498530025127,-0.0404370250556963,-0.00180059205908383,-0.159276100955229,0.00178024638609984,0.00681580044963937,0.0388195440534684,6.10370189519944e-05,-0.00676493626717938,0.0086876023641672,0.0134586626789148,-0.043132826726076,0.87160863063448
0.81,1,-0.0183212785220903,-0.00590024516535946,0.0124820703756829,0.043519394512772,0.000193283893347982,-0.0405896176030763,-0.000498468988107954,-0.159560940377005,0.00182093773206783,0.00857570116275521,0.0443637399416079,-0.00379446801151565,-0.00689718314157537,0.0114546138899909,0.0134891811883908,-0.0382193467004405,0.865942360708436
0.84,1,-0.0222785119174779,-0.00852483698029522,0.0162053285317545,0.0466119368063397,0.0127058727785068,-0.043753369752088,-0.00200404878892382,-0.158828496149581,0.00206508580787581,0.0169886369416384,0.0492568742942595,-0.00127160456149988,-0.00351980142623168,0.0188197475101983,0.0176396984771264,-0.0474257637256996,0.861690115054781
0.87,1,-0.0247606840215257,-0.00338755455183569,0.0185247352519303,0.0488296151615955,0.00675476343068738,-0.0480157882422356,-0.00302133243812372,-0.160130619220557,0.00011190120141199,0.0168869085767184,0.0741904965361492,-0.00702943001597135,-0.00139367859940387,0.0234382152775658,0.0174667602567624,-0.0473138625242876,0.861028880682801
0.9,1,-0.0268664611753695,-0.00387585070345164,0.0162968840601825,0.0529903052868231,0.0157780693990905,-0.0557980081586149,0.000559506007059949,-0.158543656727805,0.000478123315123956,0.0205389568773461,0.0967741935483871,-0.00371308531957966,0.00378429517502365,0.0308643859167252,0.0174057232378104,-0.0571509954120507,0.862575151829585
0.93,1,-0.0291044852036093,-0.00446587521998759,0.0209153518275501,0.0584124271370586,0.0188909573656423,-0.0634174626911222,-0.00936918240913114,-0.162002421135085,-0.000335703604235969,0.0285551520330414,0.118920458591469,-0.00289925840021973,0.00674459059419538,0.0360830510371207,0.0208848333180741,-0.06534012878811,0.860347300637837
0.96,1,-0.0296334727011933,-4.06913459679963e-05,0.0186162907803583,0.0625222530798262,0.0140181686859747,-0.0635293638925341,-0.0043641468550676,-0.161758273059277,-0.00269580167037975,0.0250556962797937,0.13052766502884,-0.0118310088401949,0.011129083122247,0.0409965310627562,0.0182195501571703,-0.0635293638925341,0.864823348694317
0.99,1,-0.0300709046703492,0.000152592547379986,0.0179957477543463,0.0689006215603097,0.021790215765862,-0.0747906938891771,0.00287891272723574,-0.160537532680237,0.00100711081270791,0.04320403658152,0.157841731009857,-0.00752789900407931,0.0191147597684662,0.0494399853511155,0.0181585131382183,-0.0746686198512731,0.86570838546912
1.02,1,-0.0303862626016012,0.000152592547379986,0.0185654265978983,0.0768761253700369,0.0266019674265776,-0.0850143945636362,0.00121056754254789,-0.161432742291533,0.00121056754254789,0.0388093712169764,0.187444685201575,-0.010742515335551,0.0287687815993734,0.0593788466037985,0.0186162907803583,-0.086987924843084,0.865596484267708
1.05,1,-0.0306304106774092,0.000152592547379986,0.0184738710694703,0.0838343455305643,0.0196946114485102,-0.0884833318074079,0.00129195023448388,-0.162938322092349,0.00116987619657989,0.0420239875484481,0.219133070874152,-0.0124820703756829,0.0350454217149368,0.0658589434492019,0.0186162907803583,-0.086947233497116,0.864101077303384
1.08,1,-0.0308236945707572,0.000152592547379986,0.0187892290007223,0.0931323180842514,0.0342926318145288,-0.102806685588143,0.0128076011434268,-0.159235409609261,0.00116987619657989,0.0561642302723268,0.272031820632547,-0.00443535671051159,0.0524409721162552,0.0834782962533443,0.0186162907803583,-0.10427157404299,0.860866115298929
1.11,1,-0.0285144606870734,0.00781273842585528,0.0161849828587705,0.105655079805902,0.0319630522578611,-0.114271472314625,0.00348928291675568,-0.1685944191819,0.00267545599739575,0.118381298257393,0.334136987416201,0.00424207281716361,0.0731426943774733,0.101911475976847,0.0138859218115787,-0.115421002838221,0.850561031932534
1.14,1,-0.0266935229550055,0.00708029419843135,0.0142114525793227,0.114871669667653,0.0295520900092573,-0.120985544399345,-0.00127160456149988,-0.176651305683564,-0.0032654805139317,0.131819615263324,0.412895087537258,0.011200292977691,0.0952787865840632,0.122216457614877,0.0133264158045188,-0.121585741752373,0.832890814945931
1.17,1,-0.021535894853562,0.010966317738375,0.0100711081270791,0.122175766268909,0.0178431552069664,-0.121372112186041,-0.0207220679342021,-0.205704926704713,0.000966419466739911,0.15637684255501,0.580807926674195,0.0142826624347667,0.125349691254412,0.147089042837814,0.00835189875993123,-0.121748507136245,0.800134281441694
1.2,1,-0.000284839421775974,0.0555029959003469,-0.0021464684998118,0.123752555925169,-0.00126143172500788,-0.111250139876502,0.0339671010467849,-0.181249427777947,-0.0240587583035778,0.153111362041078,0.570034892829168,0.0396333709728284,0.160354421623381,0.160802026429029,-0.0188502660196743,-0.110558386995046,0.690776289152705
1.23,1,0.0383109022288685,0.109744560075686,-0.0697958311716056,0.121829889828181,-0.0086265653452152,-0.102348907946003,0.02127140110477,-0.189509771009451,-0.0101016266365551,0.140568254646443,0.611000905382448,0.112074139632354,0.19708853419599,0.158879360332041,-0.076357310708945,-0.104057944476658,0.487512843206071
1.26,1,0.065777560757266,0.0798465936257007,-0.0789513840144047,0.112999867753126,-0.0356354462314727,-0.0773542486851609,0.0346181625822728,-0.164688049968973,-0.0427767774488561,0.197322509435306,0.439385153762424,0.245562100080365,0.227749463382875,0.162012593971577,-0.0794905443484807,-0.0776594337799209,0.25983458967864
1.29,1,0.0912605161697236,0.0731426943774733,-0.0891140476699118,0.0968250577308471,-0.0568559831537828,-0.0507319355855993,0.000152592547379986,-0.155451114434238,-0.0337839899899289,0.188665425580615,0.305246131778924,0.400301115960163,0.250282296212653,0.159082817061881,-0.0905585904517757,-0.0475885291095716,0.122043519394513
1.32,1,0.108116906236966,0.0445671966714479,-0.0903144423759677,0.0768150883510849,-0.0691345967996256,-0.0356863104139327,-0.122369050162257,-0.124891913612273,0.00796533097323527,0.144372895494451,-0.0520442314930672,0.242927335428938,0.258593503626616,0.150598671427554,-0.0910367137668996,-0.0198166854864142,0.0644550920133061
1.35,1,0.111840164393038,0.00449639372946359,-0.0709962258776615,0.0589414146346426,-0.053966897590055,-0.02167831456445,-0.119561347290465,-0.141453291421247,0.00881984923856319,0.112440361746066,-0.395936969105096,-0.0720745465458134,0.243405458744062,0.131636504206468,-0.0709758802046775,-0.011047700430311,0.0377005320393485
1.38,1,0.110690633869442,-0.010996836247851,-0.0633767713451542,0.0485854670857875,-0.0287586087628814,-0.0186468092898343,-0.142674031800287,-0.146743166397087,-0.00086469110181992,0.0805281736706646,-0.680522069968769,-0.293160802026429,0.210526851201921,0.0999582913703828,-0.0628884751935382,-0.022156437879574,0.0209255246640421
1.41,1,0.103905351929278,-0.0263476465142776,-0.0519221574551632,0.0377310505488245,-0.0394095685700044,-0.0170700196335744,-0.131402528967152,-0.167332987456893,-0.0129907122002828,0.0410677409182002,-0.946480707215593,-0.365133620207322,0.161025828831853,0.0572018595945107,-0.0513016144291513,-0.00735496078371532,0.0169377727591784
1.44,1,0.0898363190608437,-0.0489313435265155,-0.0376293221839045,0.0281278929003774,-0.0230719931638539,0.000681580044963937,-0.118584754987233,-0.179459008555355,-0.0197047842850022,0.0279142633340454,-1.20994699952188,-0.428601947080905,0.0958484654276152,0.00615456607765943,-0.032451348409477,-0.00406913459679963,0.00707012136193935
1.47,1,0.0704672383800775,-0.064994252347382,-0.0195420189011302,0.0267036957914975,-0.00206508580787581,-0.00884019491154719,-0.0821660003458764,-0.211767937253945,-0.022024191005178,-0.00678528194016338,-1.38693400880968,-0.485305337687307,0.0169886369416384,-0.0532954903815831,-0.0118411816766869,-0.0230109561449019,0.00276701152582375
1.5,1,0.0527461572110152,-0.0574866990162867,-0.00187180191452783,0.0232652770572019,-0.0125024160486668,-0.0128991566718548,-0.0449334187851599,-0.220313119907224,-0.0319528794213691,-0.0133365886410108,-1.46503087455875,-0.51702424186936,-0.0691244239631336,-0.121799371318705,-0.00145471561835587,-0.010630614134139,0.00186162907803583
1.53,1,0.043265073600472,-0.0244046347443058,-0.00607318338572344,0.0200099693797622,-0.00861639250872321,-0.00773135573391929,0.032095299132257,-0.243588569800918,-0.0374869024730166,-0.0114342682170069,-1.40795108900215,-0.476343068737856,-0.157058422599974,-0.200262459181494,-0.0126550085960468,-0.0102847376934111,0.00167851802117985
1.56,1,0.0281584114098534,-0.0375682851649525,-0.00577817112745547,0.0193792535172582,7.12098554439934e-05,-0.00685649179560737,0.0304676452935372,-0.226294747764519,-0.0336212246060569,0.0271919919431135,-1.19043549913022,-0.407890051983195,-0.232317066967783,-0.260404268522192,-0.00124108605202389,-0.0165613778089745,0.00141402427238787
1.59,1,0.00950142928352713,-0.0490941089103875,0.0119429100416069,0.0193792535172582,0.000152592547379986,-0.0126651814325388,0.0845871354309722,-0.229143141982279,-0.0258898688721376,0.0203660186569821,-1.00898261462244,-0.291695913571581,-0.299976602476068,-0.309366130558184,0.0178533280434584,-0.0169377727591784,0.00134281441694388
1.62,1,-0.0054017761772515,-0.0390433464562924,0.0223192032634459,0.0192673523158462,0.000152592547379986,-0.0156254768517106,0.10595009206417,-0.199641916155482,-0.0244656717632578,-0.0441297647022919,-0.716065960671814,0.00833155308694723,-0.3514308094526,-0.345835749382,0.0233364869126459,-0.0163680939156265,0.00154627114678386
1.65,1,-0.0119022186956389,-0.0126143172500788,0.0191045869319742,0.0180873032827743,-0.000528987497583951,-0.0075889360230313,0.0923591825108595,-0.17144281339966,-0.0199082410148422,-0.0746177556688131,-0.419385357219153,0.305235958942432,-0.384360281177201,-0.37224443291523,0.0154321929583626,-0.0145471561835587,0.00167851802117985
1.68,1,-0.0143945636361787,-0.000559506007059949,0.010905280719423,0.0179347107353944,-0.0022278511917478,-0.0065513067008474,0.0591957355469426,-0.154515213476974,-0.0137638477736747,-0.0827661976989044,-0.249031037324137,0.410382396923734,-0.372844630268258,-0.358226264229255,0.00910468866033916,-0.0125634530676188,0.00167851802117985
1.71,1,-0.0164393037710705,0.000152592547379986,0.00950142928352713,0.0177007354960784,-0.00364187546413566,-0.00641905982645141,0.0410880865911842,-0.153701386557614,-0.00827051606799524,-0.0835189875993123,-0.105807672353282,0.363363546657715,-0.295276752016765,-0.27866451002533,0.00987782423373109,-0.0143436994537187,0.00167851802117985
1.74,1,-0.0179957477543463,0.000152592547379986,0.0102135278379671,0.0176295256406344,-0.000264493748791976,-0.0054119490137435,0.0198472039958902,-0.154067608671326,-0.00562557858007548,-0.0804366181422366,0.00804671366517126,0.229895931882687,-0.233232622252063,-0.215013072094892,0.010834070863979,-0.0155949583422346,0.00167851802117985
1.77,1,-0.0189316487116103,0.000152592547379986,0.011037527593819,0.0176193528041424,0.000132246874395988,-0.00552385021515549,0.00495417137160354,-0.154922126936654,-0.00672424492121138,-0.0781273842585528,0.102593056021811,0.0928474786624755,-0.187851598661255,-0.16869614754682,0.0114444410534989,-0.0151371807000946,0.00167851802117985
1.8,1,-0.0190537227495142,0.000366222113711966,0.0118411816766869,0.0166529333374025,-0.000447604805647959,-0.00498468988107954,-0.00688701030508337,-0.153416547135838,-0.00794498530025127,-0.0817997782321645,0.17886898403882,0.00965402183090711,-0.155115410830002,-0.135807367168188,0.0117496261482589,-0.0130822677287108,0.00167851802117985
1.83,1,-0.0167444888658305,0.00798567664621926,0.00855535548977121,0.0168055258847825,0.000152592547379986,-0.0103152562028871,-0.0125837987406028,-0.15398622597939,-0.0120141198970509,-0.0888190354116438,0.229712820825831,-0.00265511032441176,-0.13454593544318,-0.117597989847509,0.00635802280749942,-0.0144962920010987,0.00167851802117985
1.86,1,-0.0164698222805465,0.000834172592343923,0.00801619515569526,0.0169377727591784,0.000152592547379986,-0.0130212307097588,-0.0156356496882026,-0.155288349050366,-0.0142114525793227,-0.0951465397096673,0.276467177343059,0.0346385082552568,-0.114159571113213,-0.097455773593351,0.00955229346598712,-0.0144962920010987,0.00167851802117985
1.89,1,-0.0154728843043306,0.000152592547379986,0.00960315764844712,0.0169377727591784,0.000152592547379986,-0.0137638477736747,-0.0162867112236905,-0.156671854813278,-0.0160832544938505,-0.10620441297647,0.30385245317952,0.0908230842005676,-0.0942208115888953,-0.0785037792087568,0.00955229346598712,-0.0144962920010987,0.00167851802117985
1.92,1,-0.0140690328684347,0.000152592547379986,0.00924710837122715,0.0156865138706626,-0.00670389924822738,-0.0138045391196427,-0.0175481429486984,-0.159479557685069,-0.0188909573656423,-0.115573595385601,0.295520900092573,0.134912157556892,-0.0776085695974609,-0.0633055614897102,0.00863673818170721,-0.00970488601336711,0.00167851802117985
1.95,1,-0.0131636504206468,0.000152592547379986,0.00835189875993123,0.0143742179631947,-0.000823999755851924,-0.00416069012522762,-0.0552283293150629,-0.166397086499629,-0.0291451765495773,-0.118116804508601,0.213639739168472,0.204718161564989,-0.0638243761508021,-0.0504267504908394,0.00805688650166326,-0.010549231442203,0.00167851802117985
1.98,1,-0.0150354523351746,-0.00447604805647959,0.00849431847081922,0.0143436994537187,0.000152592547379986,-0.00816878770307525,-0.139784946236559,-0.164606667277037,-0.0511998860642313,-0.112470880255542,0.169337036245816,0.374248481704154,-0.0529190954313791,-0.0376293221839045,0.010437330240791,-0.0122074037903989,0.00167851802117985
2.01,1,-0.0211493270668661,-0.0144250821456547,0.0154321929583626,0.0133365886410108,-0.00620543026011943,-0.010376293221839,-0.191625720999786,-0.152928250984222,-0.0413118889940082,-0.116448459323913,0.0203660186569821,0.398520869574063,-0.0483108005005036,-0.0269681895402895,0.0192673523158462,-0.00825017039501124,0.00167851802117985
2.04,1,-0.0225735241757459,-8.13826919359925e-05,0.0193995991902422,0.010528885769219,-0.00879950356557919,-0.00101728364919991,-0.0505488245287433,-0.137668996246223,-0.0341909034496089,-0.0631427961058382,0.0845566169214962,0.103122043519395,-0.0533768730735191,-0.0305592008219652,0.0155847855057426,-0.00197353027944782,0.00167851802117985
2.07,1,-0.0228888821069979,0.00167851802117985,0.0121158482619709,0.00961333048493912,-0.000244148075807978,-0.00206508580787581,-0.0564897610400708,-0.144952747174495,-0.0344757428713848,-0.0238349559007538,0.0698365225175736,-0.178573971780552,-0.0884019491154719,-0.065299437442142,0.0126855271055228,-0.00724305958230333,0.00167851802117985
2.1,1,-0.0239163385926898,0.000172938220363984,0.0138960946480707,0.00693787448754336,-0.00966419466739911,-0.000162765383871985,-0.0601519821771905,-0.139337341430911,-0.00774152857041129,0.0149438968067466,0.0660725730155339,-0.3085828221483,-0.119337544887641,-0.0951770582191433,0.0144454278186387,-0.000732444227423933,0.00601214636677145
2.13,1,-0.0265612760806096,-0.00519831944741152,0.0175481429486984,0.00283822138126774,-0.0153508102664266,0.00313323363953571,-0.0489211706900235,-0.148208054851934,0.00234992522965178,-0.00163782667521185,0.0819218522700685,-0.186356191696931,-0.134830774864956,-0.108055869218014,0.0193690806807662,0.00780256558936328,0.0274564856919055
2.16,1,-0.0268766340118615,-0.000152592547379986,0.0150557980081586,-0.00262459181493576,-0.0200201422162542,0.0086265653452152,-0.0568152918078148,-0.150405387534206,0.00287891272723574,-0.0244249804172898,0.0917895036673076,-0.0343333231604968,-0.138991464990183,-0.11190120141199,0.0151676992095706,0.0158797977640105,0.0659403261411379
2.19,1,-0.0285958433790094,-0.00281787570828374,0.0198573768323822,-0.0117292804752749,-0.032451348409477,0.0192164881333862,-0.053763440860215,-0.154067608671326,-0.010427157404299,-0.0316578671631011,0.112786238186794,-0.00354014709921567,-0.147363709423098,-0.118564409314249,0.0195216732281462,0.0314645832697531,0.119245989359213
2.22,1,-0.0288603371278013,5.08641824599953e-05,0.0178329823704744,-0.0186976734722943,-0.0161544643492945,0.0319223609118931,-0.0409456668802962,-0.165054272082685,-0.011037527593819,-0.0285551520330414,0.147923215430158,-0.0513524786116113,-0.153355510116886,-0.124291716259245,0.0177007354960784,0.0314951017792291,0.17846207057914
2.25,1,-0.0289925840021973,0.000152592547379986,0.0177210811690624,-0.0234585609505498,-0.0168360443942585,0.0290129296751813,-0.0511185033722953,-0.159154026917325,-0.00493382569861955,-0.0352997426272368,0.157597582934049,-0.0518407747632272,-0.149550869268878,-0.120365001373333,0.0177007354960784,0.0303048799096652,0.248695333719901
2.28,1,-0.0291553493860693,0.000152592547379986,0.0176396984771264,-0.0311492253385011,-0.0267952513199255,0.0395316426079084,-0.0423291726432081,-0.152399263486638,-0.0065614795373394,-0.0390942106387524,0.165583259580269,-0.04330576494644,-0.15647857091993,-0.12711976480402,0.0177007354960784,0.0464084800764997,0.298369294310333
2.31,1,-0.0271004364146855,0.0075584175135553,0.0155847855057426,-0.0358389029613127,-0.010956144901883,0.04356008585874,-0.0376089765109205,-0.162490717286701,-0.00627664011556342,-0.0355337178665527,0.185623747469507,-0.0566016622414828,-0.151605782240262,-0.124301889095737,0.0131941689301228,0.0416882839442122,0.367941323079114
2.34,1,-0.0282703126112654,-0.00150557980081586,0.0164087852615945,-0.0378632974232205,-0.00590024516535946,0.0378022604042685,-0.0422884812972401,-0.155858027893918,-0.00473036896877956,-0.0417188024536882,0.184331797235023,-0.0601112908312225,-0.146417635629343,-0.117893002105777,0.0181992044841863,0.0366934212266406,0.445051423688467
2.37,1,-0.0275683868933175,0.00303150527461572,0.0150557980081586,-0.0418205308186082,-0.010467848750267,0.043366801965392,-0.0388704082359284,-0.154555904822942,-0.00314340647602771,-0.0419629505294961,0.192114017151402,-0.0634988453830582,-0.14783165990173,-0.120019124932605,0.0148319956053346,0.0454420606097598,0.515111748608865
2.4,1,-0.0280058188624734,0.000254320912299977,0.0164393037710705,-0.0455336161381878,-0.0128482924893948,0.0466017639698477,-0.0368765322834966,-0.157322916348766,-0.00289925840021973,-0.0449232459486679,0.196864731793166,-0.0522171697134312,-0.144118574582151,-0.115878780480361,0.0169581184321624,0.0484735658843755,0.588447726879686
2.43,1,-0.0284025594856614,0.000152592547379986,0.0171310566525264,-0.0485040843938515,-0.00892157760348318,0.0488703065075635,-0.0342315947955768,-0.160700298064109,-0.00241096224860378,-0.0407015188044883,0.197963398134302,-0.0575680817082227,-0.139927365947447,-0.111311176895454,0.0172429578539384,0.0501520839055554,0.665384889268675
2.46,1,-0.0286670532344534,0.000152592547379986,0.0173853775648264,-0.0516881822158472,-0.00849431847081922,0.0528580584124271,-0.0275989054027935,-0.164077679779453,0.000356049277219967,-0.0416475925982442,0.199296039714754,-0.0388500625629444,-0.132989491459904,-0.104078290149642,0.0176702169866024,0.0526647745190792,0.726198105817845
2.49,1,-0.0287891272723573,0.000152592547379986,0.0176905626595864,-0.0524816634622232,1.01728364919991e-05,0.0483108005005036,-0.0270292265592415,-0.162327951902829,-0.00155644398327586,-0.0386669515060884,0.200883002207506,-0.0183924883775343,-0.123467716503393,-0.0944649596647033,0.0177007354960784,0.0469374675740837,0.774264758242541
2.52,1,-0.0289620654927213,0.000152592547379986,0.0177210811690624,-0.0524918362987152,0.000152592547379986,0.0467238380077517,-0.0264595477156896,-0.160659606718141,-0.000498468988107954,-0.0351471500798568,0.198583941160314,-0.0162358470412305,-0.116082237210201,-0.08691671498764,0.0177007354960784,0.0465407269508957,0.806563514104638
2.55,1,-0.0293588061159093,0.000152592547379986,0.0178329823704744,-0.0493992940051475,0.0126651814325388,0.0408337656788842,-0.0226752525406659,-0.159967853836685,0.000274666585283975,-0.0295317443362733,0.204687643055513,-0.0138452304656107,-0.106845301675466,-0.0772626931567329,0.0178533280434584,0.0373750012716046,0.833175654367707
2.58,1,-0.0297555467390973,0.000152592547379986,0.0181381674652343,-0.043285419273456,0.0260729799289936,0.0316171758171331,-0.0196234015930662,-0.160089927874589,-1.01728364919991e-05,-0.0285449791965494,0.221727144179612,-0.0101117994730471,-0.0963265887427391,-0.0663472396008179,0.0181585131382183,0.0226955982136499,0.850327056693218
2.61,1,-0.0300505589973652,0.000152592547379986,0.0180160934273303,-0.0333262123477889,0.0310068056276131,0.00934883673614714,-0.0313832005778171,-0.158665730765709,0.0010478021586759,-0.0178126366974904,0.218420972319712,-0.011363058361563,-0.0887885169021678,-0.0584938098289946,0.0181585131382183,0.00568661559902748,0.865535447248756
2.64,1,-0.0302234972177292,0.000152592547379986,0.0183924883775343,-0.0295622628457493,0.010813725190995,0.00957263913897112,-0.0119734285510829,-0.160334075950397,0.00133264158045188,-0.00400809757784763,0.2134769737846,-0.00804671366517126,-0.0842717774997202,-0.0538346507156591,0.0184331797235023,0.0199285866878262,0.865159052298553
2.67,1,-0.0303659169286172,0.000152592547379986,0.0186773277993103,-0.0172429578539384,0.0506505528936633,0.00659199804681539,-0.00973540452284311,-0.158340199997965,0.0010884935046439,0.00210577715384381,0.233385214799443,0.00182093773206783,-0.0642211167739901,-0.0336619159520249,0.0186162907803583,-0.0155440941597746,0.867783644113488
2.7,1,-0.0302438428907132,0.000152592547379986,0.0184433525599943,-0.00526952930285552,0.0275785597298095,-0.0133874528234708,-0.0306100650044252,-0.159805088452813,0.00283822138126774,0.0101423179825231,0.219346700440484,-0.00203456729839981,-0.0613523768832464,-0.0309050772626932,0.0185857722708823,-0.0196335744295582,0.86657307657094
2.73,1,-0.0299284849594612,0.000152592547379986,0.0182907600126143,0.000376394950203965,0.0247606840215257,-0.00302133243812372,-0.00403861608732363,-0.15724153365683,-0.00053916033407595,0.0228176722515539,0.209438357697277,0.00645975117241941,-0.0516576637063712,-0.021505376344086,0.0181585131382183,-0.0126956999420148,0.862849818414869
2.76,1,-0.0295724356822413,0.000152592547379986,0.0180567847732983,0.011383404034547,0.0358389029613127,-0.0182398958301543,-0.0134383170059308,-0.158421582689901,0.00161748100222785,0.032695496485285,0.216355886511836,0.00232957955666779,-0.0401216671244443,-0.0103254290393791,0.0181585131382183,-0.0360830510371207,0.861456139815465
2.79,1,-0.0279549546800134,0.0054017761772515,0.0179957477543463,0.0190537227495142,0.0192266609698782,-0.0304676452935372,-0.00810775068412325,-0.161025828831853,0.00157678965625985,0.0463576158940397,0.198146509191158,0.00263476465142776,-0.032319101535081,-0.00414034445224362,0.0153711559394106,-0.0310271513005971,0.861222164576149
2.82,1,-0.0288908556372773,-0.00351980142623168,0.0159408347829625,0.0255338195949176,0.0238451287372458,-0.032431002736493,0.00178024638609984,-0.159764397106845,0.00116987619657989,0.0559302550330109,0.19474878180283,0.00155644398327586,-0.0192876979888302,0.00966419466739911,0.0190638955860062,-0.0362763349304687,0.860001424197109
2.85,1,-0.0274259671824295,0.00365204830062766,0.0160323903113905,0.0361135695465967,0.0363068534399447,-0.0494501581876075,-0.00696839299701936,-0.157526373078606,-0.0010681478316599,0.0659098076316619,0.206244087038789,-0.00335703604235969,-0.00579851680043947,0.02167831456445,0.0138960946480707,-0.0571815139215267,0.859726757611825
2.88,1,-0.0272733746350495,0.00168869085767184,0.0182704143396303,0.0423698639891761,0.0167241431928465,-0.0507421084220913,-0.00269580167037975,-0.163630074973805,0.00076296273689993,0.0849737032176682,0.204830062766401,-0.00346893724377168,0.00350962858973968,0.0309661142816452,0.0172124393444624,-0.0492161829482915,0.860672831405581
2.91,1,-0.0282906582842494,-0.0043539740185756,0.0158187607450585,0.0513016144291513,0.033071891435489,-0.0644856105227821,0.00532039348531551,-0.159886471144749,-0.00302133243812372,0.0965198726360871,0.227027191991943,0.00345876440727968,0.0177515996785384,0.0462457146926277,0.0192164881333862,-0.06534012878811,0.863093966490677
2.94,1,-0.0269885352132735,0.00476088747825556,0.0162053285317545,0.0612404756818344,0.0301828058717612,-0.0755027924436171,-0.00131229590746788,-0.164728741314941,-0.00505589973652353,0.0959807123020112,0.249743135878577,-0.00100711081270791,0.0289518926562293,0.0561744031088188,0.0132246874395988,-0.076448866237373,0.859187597277749
2.97,1,-0.0274259671824295,0.000193283893347982,0.0173853775648264,0.0711895097710094,0.0355947548855047,-0.0850347402366202,0.00340790022481969,-0.161839655751213,-0.0064800968454034,0.0932543921221554,0.296599220760725,0.00477106031474756,0.0440585548468479,0.0717184972685934,0.0178838465529344,-0.0849533575446842,0.856654560991241
3,1,-0.0267036957914975,0.00199387595243182,0.0142216254158147,0.0826034323150324,0.0351166315703808,-0.0965707368185471,-0.00192266609698782,-0.166315703807693,-0.00306202378409172,0.10661132643615,0.359650461338135,0.00943021942808313,0.0560014648884548,0.0829493087557604,0.0149032054607786,-0.097669403159683,0.849798069195634
3.03,1,-0.0250556962797937,0.00409965310627562,0.0155542669962666,0.0937833796197394,0.0383617664113285,-0.107547227393414,-0.00680562761314737,-0.179255551825516,-0.00676493626717938,0.136539811395611,0.461734875535346,0.0347707551296528,0.0788293099765007,0.104139327168594,0.0143742179631947,-0.10900194301177,0.837163406272571
3.06,1,-0.0188807845291503,0.0123396506647949,0.00958281197546312,0.103996907457706,0.0275480412203335,-0.111667226172674,-0.022146265043082,-0.214534948779768,-0.0101830093284911,0.193517868587298,0.623065889461959,0.101585945209103,0.112440361746066,0.131534775841548,0.00617491175064343,-0.113132114627522,0.791721345662811
3.09,1,0.00481175166071556,0.0623289691864783,-0.00915555284279916,0.10483108005005,-0.00584938098289946,-0.0908129113640756,0.0259915972370576,-0.186905524867499,-0.0487584053061515,0.166763308613341,0.555314798425245,0.169601529994608,0.147363709423098,0.142704550309763,-0.0254626097394737,-0.0900601214636677,0.585243283384706
3.12,1,0.0411186051006602,0.102877895443587,-0.0714234850103254,0.097760958688111,-0.0295622628457493,-0.0681681773328857,-0.00578834396394747,-0.17388429415774,-0.0661336100344859,0.192876979888302,0.461979023611154,0.446994435458439,0.180333872493667,0.139306822921435,-0.0754417554246651,-0.0700298064109215,0.274473301390627
3.15,1,0.0604164759259824,0.0521256141850032,-0.065411338643554,0.0780663472396008,-0.0775170140690329,-0.0341298664306569,-0.0996632791121148,-0.139255958738975,-0.0398876918851283,0.25617236854152,0.0570085757011628,0.643879512924589,0.195023448388114,0.134708700827052,-0.065808079266742,-0.0193283893347982,0.0949125644703513
3.18,1,0.0643330179754021,0.00276701152582375,-0.0459913937803278,0.0596840316985585,-0.0484939115573595,-0.000854518265327921,-0.193334757530442,-0.136082033753471,0.00479140598773156,0.274168116295867,-0.375194555497909,0.338684245328125,0.184057130649739,0.119836013875749,-0.0424512466811121,-0.0121972309539069,0.0383210750653605
3.21,1,0.0625527715893022,-0.0124515518662069,-0.032949817397585,0.0559200821965189,-0.00473036896877956,-0.0192368338063702,-0.162938322092349,-0.158055360576189,0.0140283415224667,0.190089622689495,-0.646361685028637,-0.201707001963357,0.15235857214067,0.0898871832433037,-0.0318816695659251,-0.0451165298420158,0.0121463667714469
3.24,1,0.0587583035777866,-0.0179855749178543,-0.0291451765495773,0.0479852697327596,-0.0366018656982126,-0.0311492253385011,-0.118096458835617,-0.166926073997213,-0.00391654204941964,0.149296548356578,-0.841954812260303,-0.540828679260638,0.10701823989583,0.0483718375194555,-0.0271309549241615,-0.021444339325134,0.00383515935748365
3.27,1,0.0514745526495153,-0.0270597450687175,-0.021342610960214,0.0293588061159093,-0.0671915850296538,-0.0124617247026989,-0.0807824945829646,-0.179133477787612,-0.0174667602567624,0.0962655517237871,-0.990976694031597,-0.568447930336416,0.0513423057751193,5.08641824599953e-05,-0.0177414268420464,0.0199387595243182,0.00207525864436781
3.3,1,0.0447503077283039,-0.0243537705618458,-0.0158899706005025,0.0151168350271106,-0.0355031993570767,0.00934883673614714,-0.0479038870408236,-0.197363200781274,-0.0200710063987142,0.054526403597115,-1.04776146732994,-0.446506139306823,-0.0100914538000631,-0.054719687490463,-0.0147302672404146,0.0173548590553504,0.00171920936714784
3.33,1,0.0404268522192043,-0.0161442915128025,-0.0150252794986826,0.0134790083518988,-0.00043743196915596,-0.00380464084800765,-0.0415153457238482,-0.204240038249865,-0.0184840439059623,0.0123498235012869,-1.12146366771447,-0.344808292896308,-0.0753298542232531,-0.115675323750521,-0.0152694275744906,-0.010457675913775,0.00167851802117985
3.36,1,0.0346079897457808,-0.0180669576097903,-0.0145369833470667,0.011291848506119,-0.0076398002054913,-0.00446587521998759,-0.0257677948342336,-0.204117964211961,-0.0237739188818018,-0.00350962858973968,-1.15399639881588,-0.290922777998189,-0.143650624103519,-0.178197576830348,-0.0126041444135868,-0.0043539740185756,0.00167851802117985
3.39,1,0.0277108066042055,-0.0183314513585823,-0.00983713288776309,0.010864589373455,0.00011190120141199,-0.0032959990234077,-0.0183212785220903,-0.202978606524857,-0.0249539679148737,-0.00513728242845953,-1.20005900245165,-0.270261747082939,-0.214555294452752,-0.242154199855546,-0.00743634347565132,-0.00894192327646718,0.00167851802117985
3.42,1,0.0163477482426425,-0.0272632017985575,-0.00164799951170385,0.010834070863979,0.000152592547379986,-0.00559506007059949,0.0285551520330414,-0.202490310373241,-0.0279244361705374,0.00772118289742729,-0.998158716594948,-0.17378256579282,-0.281187373475346,-0.297443566189561,0.00237027090263578,-0.00900296029541917,0.00167851802117985
3.45,1,0.00706503494369335,-0.0195674509923602,0.00641397340820541,0.010793379518011,0.000152592547379986,-0.0075787631865393,0.0366323842076886,-0.187454858038067,-0.0249336222418897,0.00295520900092573,-0.82260607725252,-0.0611234880621764,-0.335881628874579,-0.342880540381074,0.00605792413098544,-0.00900296029541917,0.00167851802117985
3.48,1,0.00251269061352377,-0.00716167689036734,0.00359101128167567,0.00929797255368714,-0.00149540696432386,-0.00148523412783186,0.0284330779951374,-0.171157973977884,-0.0203965371664581,-0.00631733146153142,-0.638742230496129,0.0687378561764377,-0.378561764376761,-0.381003245134841,0.00289925840021973,-0.0064800968454034,0.00167851802117985
3.51,1,0.000386567786695964,-0.000223802402823979,0.000478123315123956,0.00838241726940723,-0.00599180069378745,-0.00304167811110772,0.0245674001281777,-0.158136743268125,-0.0149032054607786,-0.0271919919431135,-0.519486068300424,0.184362315744499,-0.370942309844254,-0.371186457920062,0.000152592547379986,-0.00307219662058372,0.00167851802117985
3.54,1,-0.00363170262764367,-0.00725323241879533,0.00334686320586769,0.00854518265327921,0.000152592547379986,-0.00340790022481969,0.021841079948322,-0.149957782728558,-0.00924710837122715,-0.0522985524053672,-0.416292814925586,0.236569312621438,-0.34771772413302,-0.343862219102552,0.00531022064882351,-0.00709046703492335,0.00167851802117985
3.57,1,-0.00520849228390352,-0.00115970336008789,0.00578834396394747,0.0086876023641672,0.000152592547379986,-0.00528987497583951,0.0151676992095706,-0.145970030823695,-0.00558488723410749,-0.0702230903042695,-0.321553188675598,0.188990956348359,-0.318684448784855,-0.313241981261635,0.00408948026978362,-0.00717184972685934,0.00167851802117985
3.6,1,-0.00625629444257942,0.000142419710887987,0.00365204830062766,0.0086977752006592,0.000152592547379986,-0.00622577593310343,0.0178940193894264,-0.149388103885006,-0.00265511032441176,-0.0805180008341726,-0.232327239804275,0.054841761528367,-0.276690979745883,-0.270210882900479,0.00372325815607166,-0.00717184972685934,0.00167851802117985
3.63,1,-0.00734478794722332,0.000152592547379986,0.0043438011820836,0.0086469110181992,0.000152592547379986,-0.00660217088330739,0.0259509058910896,-0.144138920255135,-0.00517797377442752,-0.0993275755078789,-0.104057944476658,-0.0577511927650787,-0.228400524918363,-0.220821761731824,0.0043031098361156,-0.00717184972685934,0.00167851802117985
3.66,1,-0.00809757784763126,0.000152592547379986,0.00443535671051159,0.00854518265327921,0.000152592547379986,-0.00690735597806736,0.0233059684031699,-0.131361837621184,-0.0101016266365551,-0.124739321064893,0.0266223130995615,-0.0916674296294036,-0.190944140954822,-0.182622760704367,0.00495417137160354,-0.00717184972685934,0.00167851802117985
3.69,1,-0.00850449130731122,0.000152592547379986,0.00496434420809554,0.00840276294239123,0.000152592547379986,-0.00711081270790735,0.0141504155603707,-0.116957101148513,-0.0185247352519303,-0.15561387981811,0.134332305876848,-0.0531225521612191,-0.184372488580991,-0.175634022034364,0.00509659108249153,-0.00717184972685934,0.00120039470605589
3.72,1,-0.00876898505610319,0.000152592547379986,0.00521866512039552,0.00817896053956725,0.000152592547379986,-0.00703960285246335,0.00365204830062766,-0.114108706930754,-0.0275582140568255,-0.172043010752688,0.212337616097496,0.00809757784763126,-0.173711355937376,-0.164749086987925,0.00549333170567949,-0.00664286222927539,0.00147506129133986
3.75,1,-0.00883002207505519,0.000152592547379986,0.00554928230638549,0.00795515813674327,0.000152592547379986,-0.00704977568895535,-0.00420138147119561,-0.123101494389681,-0.0347605822931608,-0.165573086743777,0.289259519231747,0.0732444227423933,-0.158467360454115,-0.149464400158696,0.00549333170567949,-0.0065614795373394,0.00160730816573585
3.78,1,-0.00846888637958922,0.000152592547379986,0.0054729860326955,0.00614439324116743,-0.00775170140690329,-0.0065360474461094,-0.0120141198970509,-0.136977243364767,-0.0376903592028565,-0.12653482670573,0.373933123772902,0.111702831100396,-0.137582527136041,-0.128905097608366,0.00527970213934751,-0.000350962858973968,0.00167851802117985
3.81,1,-0.00732444227423933,0.000152592547379986,0.00511693675547553,0.00561540574358348,-9.15555284279916e-05,-0.00264493748791976,-0.0157170323801386,-0.155329040396334,-0.0365916928617206,-0.0885952330088198,0.50007629627369,0.132938627277444,-0.10645873388877,-0.0989206620481989,0.00460829493087558,-0.00382498652099165,0.00167851802117985
3.84,1,-0.00236009806614378,0.00725323241879533,0.00100711081270791,0.00576799829096347,0.000152592547379986,-0.00361135695465967,-0.0686157821385337,-0.146499018321279,-0.0294707073173213,-0.0659708446506139,0.474715414899136,0.0823999755851924,-0.0808028402559486,-0.0782291126234728,-0.000935900957263914,-0.00473036896877956,0.00167851802117985
3.87,1,0.00129195023448388,0.00175990071311584,-0.00153609831029186,0.00595110934781945,0.000152592547379986,-0.00426241849014761,-0.0568966744997508,-0.152277189448734,-0.0282499669382814,-0.0634683268735822,0.37117628508357,-0.010783206681519,-0.0896125166580198,-0.0908129113640756,-0.00124108605202389,-0.00473036896877956,0.00167851802117985
3.9,1,0.00459303567613758,0.00333669036937569,3.05185094759972e-05,0.00600197353027945,0.000152592547379986,-0.00451165298420159,-0.065319783115126,-0.150039165420494,-0.0302438428907132,-0.0493077384767195,0.385845515305032,-0.0504674418368074,-0.0962858973967711,-0.100777204707989,-0.00287382630898974,-0.00473036896877956,0.00167851802117985
3.93,1,0.00844854070660522,0.0054119490137435,-0.00554928230638549,0.00620543026011943,0.000152592547379986,-0.00462355418561357,-0.0751263974934131,-0.160496841334269,-0.0296334727011933,-0.0458388012329478,0.318318226671143,-0.0428937650685141,-0.0852890611489202,-0.0936663920000814,-0.00792463962726727,-0.00506607257301553,0.00167851802117985
3.96,1,0.0102593056021811,0.000391654204941964,-0.00619525742362743,0.00625629444257942,0.000152592547379986,-0.00473545538702556,-0.0704468927070935,-0.166987111016165,-0.0267647328104495,-0.0407879879146702,0.274737795139419,-0.00845871354309722,-0.0676595355082858,-0.0778171127455468,-0.00579851680043947,-0.00518814661091952,0.00167851802117985
3.99,1,0.0116173792738629,0.000152592547379986,-0.00614947965941343,0.00625629444257942,0.000152592547379986,-0.00511693675547553,-0.0688802758873257,-0.167312641783909,-0.0244046347443058,-0.0366374706259346,0.248593605354981,-0.0121667124444309,-0.0520238858200832,-0.0635344503107802,-0.00637836848048341,-0.00518814661091952,0.00167851802117985
4.02,1,0.0128177739799188,0.000152592547379986,-0.00665303506576739,0.00625629444257942,0.000152592547379986,-0.00494399853511155,-0.065218054750206,-0.17449466434726,-0.0237535732088178,-0.0245979186376537,0.21914833012889,-0.04394156722719,-0.0377412233853165,-0.0505030467645294,-0.00731935585599333,-0.00518814661091952,0.00167851802117985
4.05,1,0.0137435021006907,0.000152592547379986,-0.00746177556688131,0.00631224504328542,0.000152592547379986,-0.00519323302916552,-0.0630817590868862,-0.182592242194891,-0.0177719453515224,-0.011093478194525,0.19647816400647,-0.0887783440656758,-0.0253252764468317,-0.0389721366008484,-0.00785851619006928,-0.00518814661091952,0.00167851802117985
4.08,1,0.0142674031800287,0.000152592547379986,-0.00800093590095726,0.0064851832636494,0.000152592547379986,-0.00498468988107954,-0.0571001312295907,-0.182795698924731,-0.0143742179631947,0.00342315947955769,0.186986907559435,-0.164103111870683,-0.0139723909217607,-0.0281634978280994,-0.00808740501113926,-0.00518814661091952,0.00167851802117985
4.11,1,0.0146488845484787,0.000152592547379986,-0.00825525681325724,0.0065614795373394,0.000152592547379986,-0.00495925778984954,-0.054068625954975,-0.179784539323099,-0.0116072064373709,0.0168207851395205,0.184560686056093,-0.228212327443261,-0.0021820734275338,-0.0166885382651245,-0.00849940488906522,-0.00518814661091952,0.00167851802117985
4.14,1,0.0139825637582527,-0.00335703604235969,-0.00849940488906522,0.00645466475417341,0.000152592547379986,-0.00525427004811752,-0.115309101636809,-0.166580197556485,-0.00310271513005971,0.0123294778283029,0.0933408612323374,-0.23698639891761,0.00780256558936328,-0.00597145502080345,-0.00718710898159734,-0.00518814661091952,0.00167851802117985
4.17,1,0.0123396506647949,-0.00481175166071556,-0.00228380179245379,0.00640888698995941,0.000152592547379986,-0.00505081331827753,-0.076387829218421,-0.158747113457645,-0.00312306080304371,0.010488194423251,-0.00414543087048962,-0.241279335917234,0.00799076306446526,-0.00409965310627562,-0.00370799890133366,-0.00518814661091952,0.00167851802117985
4.2,1,0.0115207373271889,-7.12098554439934e-05,-0.00496943062634154,0.00640888698995941,0.000152592547379986,-0.00517797377442752,-0.0559404278695029,-0.150893683685822,0.00454725791192358,-0.010706910407829,0.0800042725913266,-0.164627012950021,-0.00554928230638549,-0.0169632048504084,-0.00634784997100742,-0.00518814661091952,0.00167851802117985
4.23,1,0.010996836247851,0.000152592547379986,-0.00602740562150945,0.00582903530991546,-0.00259407330545976,-0.00497451704458754,-0.0678629922381258,-0.184830266223131,0.0176702169866024,-0.065095980712302,0.0615253151036103,-0.13307087415184,-0.0123599963377789,-0.0232703634754479,-0.00610370189519944,-0.00486770226142155,0.00296029541917173
4.26,1,0.0118462680949329,0.00205999938962981,-0.00636310922574541,-0.00200913520716982,-0.0351980142623168,0.00305693736584572,-0.0590533158360546,-0.212215542059592,-0.00572730694499547,-0.0584022543005666,0.201534063742993,0.0746940519425031,-0.00311288796655171,-0.0148218227688426,-0.00664286222927539,0.0223853267006439,0.0711233863338115
4.29,1,0.0211493270668661,0.0259458194728436,-0.0151829584643086,-0.0186671549628183,-0.053763440860215,0.032583595283873,-0.0169988097781304,-0.166620888902453,-0.0149032054607786,-0.0460727764722638,0.177704194260486,-0.0231940672017579,0.00771101006093529,-0.0131738232571388,-0.0238196966460158,0.0569831436099328,0.154067608671326
4.32,4,0.0268003377381715,0.0136366873175247,-0.0249234494053977,-0.0229346598712119,-0.00273649301634775,0.0375479394919685,-0.0139876501764987,-0.170161036001668,-0.00296029541917173,-0.0816675313577685,0.197312336598814,-0.0282347076835434,0.0197302163762322,-0.00681580044963937,-0.0227515488143559,0.0248522395499537,0.226991587064221
4.35,4,0.0365866064434746,0.0268155969929095,-0.0288755963825393,-0.0265256711528876,-0.0137078971729687,0.0284229051586454,-0.0507726269315673,-0.148065635141046,-0.00426241849014761,-0.0942411572618793,0.196396781314534,-0.0204728334401481,0.0309355957721692,-0.0054170354319895,-0.033036286507767,0.0316578671631011,0.312636697490361
4.38,4,0.0522782067323832,0.0479242327138076,-0.0505183060192674,-0.032380138554033,-0.0196996978667562,0.0364136682231107,-0.0266630044455295,-0.161676890367341,-0.0021261228268278,-0.0728782006286813,0.21380759097059,-0.0768456068605609,0.04345835749382,-0.00852992339854122,-0.0532293669443851,0.0414492222866502,0.411496322519608
4.41,4,0.0691295103813796,0.0519984537288532,-0.0661081779432559,-0.0357829523606067,-0.00552385021515549,0.0402030498163803,-0.0131331319111708,-0.17195145522426,0.00721254107282734,-0.0462202826013977,0.218583737703584,-0.0499893185216834,0.0564185511846268,-0.0125075024669128,-0.0666829432050539,0.0382905565558845,0.508616392508723
4.44,4,0.0848312835067802,0.0481887264625996,-0.0668101036612039,-0.0362814213487147,0.000152592547379986,0.0333160395112969,-0.0141097242144027,-0.165684987945189,0.000559506007059949,-0.0266375723542995,0.184240241706595,-0.0195420189011302,0.0686666463209937,-0.0159459212012085,-0.0597857600634785,0.0228380179245379,0.583824172694072
4.47,4,0.107384462009542,0.0736208176925972,-0.04381440677104,-0.0364696188238166,0.000152592547379986,0.0179448835718863,-0.054088971627959,-0.164403210547197,0.00171920936714784,-0.0138350576291187,0.284849594612466,-0.010823898027487,0.0820134077984964,-0.0251218197169917,-0.0499588000122074,0.00640888698995941,0.62541581469161
4.5,4,0.131631417788222,0.0779341003652048,-0.0614337595751824,-0.0351980142623168,0.00671915850296538,0.0098015279600411,0.00664286222927539,-0.155980101931822,-0.00232957955666779,-0.00560523290709148,0.245083976765241,-0.0228125858333079,0.0988748842839849,-0.032527644683167,-0.0608895128228604,0.00452691223893958,0.633838923306986
4.53,4,0.150522375153864,0.0617033397422203,-0.0491449730928475,-0.0293232011881873,0.0206966358429721,-0.000300098676513972,-0.00674459059419538,-0.152907905311238,-0.00086469110181992,0.00282296212652974,0.227245907976521,-0.0177109083325704,0.112832015951008,-0.0374360382905566,-0.0471867020681377,-0.000935900957263914,0.628508356985178
4.56,4,0.170303455712556,0.065406252225308,-0.0478784549495936,-0.0182704143396303,0.0423189998067161,-0.00375886308379365,-0.010956144901883,-0.15551215145319,0.00129195023448388,0.00932340464491714,0.258954639322082,-0.0251319925534837,0.12737408571632,-0.0426852219204281,-0.0491500595110935,-0.00985239214250109,0.628681295205542
4.59,4,0.190267647328104,0.0669220048626158,-0.0494196396781315,-0.00257372763247576,0.0554368724631489,-0.00939970091860714,-0.0166936246833705,-0.164871161025829,-7.12098554439934e-05,0.00693787448754336,0.287230038351594,-0.0229244870347199,0.143528550065615,-0.0465102084414197,-0.0494654174423454,-0.0183212785220903,0.640252896715191
4.62,4,0.215669220048626,0.0852076784569842,-0.0614337595751824,0.0128788109988708,0.0494908495335754,-0.0155186620685446,-0.011281675669627,-0.162368643248797,-0.000966419466739911,-0.00086977752006592,0.320836003702912,-0.0280821151361634,0.162063458154037,-0.0533667002370271,-0.0623544012777083,-0.0199591051973022,0.663757235429955
4.65,4,0.243695384584084,0.0944700460829493,-0.0702485223954995,0.0278074485508794,0.0517339599800612,-0.0190435499130222,-0.00263476465142776,-0.160781680756045,0.00173955504013184,0.00520849228390352,0.331502222764773,-0.0286568803979614,0.181539353617969,-0.0619474878180283,-0.0705486210720135,-0.021927549058504,0.677103996907458
4.68,4,0.271960610777103,0.0951617989644053,-0.0723085217851294,0.0480107018239896,0.0718253120517594,-0.0255643381043936,-0.00171920936714784,-0.161086865850805,5.08641824599953e-05,0.00925728120771915,0.339004689677623,-0.00919115777052115,0.201874853765475,-0.0698568681905576,-0.0720389416180914,-0.0334482863856929,0.682022563351339
4.71,4,0.300159713532924,0.0958128604998932,-0.0720033366903694,0.0680817082227037,0.064973906674398,-0.032868434705649,-0.00147506129133986,-0.159560940377005,-0.00188197475101983,0.00971505884985911,0.327865433718884,-0.0119988606423129,0.221772921943826,-0.0781375570950448,-0.0724458550777713,-0.0354370759198787,0.677785576952422
4.74,4,0.329050569170202,0.0965198726360871,-0.0737734102399772,0.0848770612709942,0.0554419588813949,-0.0341858170313629,0.00513728242845953,-0.160578224026205,-0.00116987619657989,-0.00165308592994985,0.303959267962686,-0.0314086326690471,0.240684224982452,-0.0881323689484339,-0.0736055584378592,-0.0347351502019308,0.674784590187282
4.77,4,0.356898709067049,0.0951261940366833,-0.0719168675801874,0.101886043885617,0.0595823033336385,-0.0360372732729067,0.00686666463209937,-0.157322916348766,-0.00350962858973968,0.0100253303628651,0.319020152389091,-0.0191656239509262,0.25927508367158,-0.097384563737907,-0.0724458550777713,-0.0388856674906664,0.674179306416008
4.8,4,0.384319589831233,0.0947243669952493,-0.0720033366903694,0.119724112674337,0.0596433403525905,-0.0403403831090223,0.00192266609698782,-0.166722617267373,0.00251269061352377,0.0135146132796208,0.354457228308969,-0.0054322946867275,0.27937660857977,-0.104714092430392,-0.0718507441429894,-0.0424461602628661,0.670496739605904
4.83,4,0.414034445224362,0.101799574775435,-0.0767489649138869,0.137241737113559,0.0584988962472406,-0.043824579607532,0.0117292804752749,-0.160924100466933,-0.000640888698995941,0.0285551520330414,0.401877905616423,-0.0102135278379671,0.3022247993408,-0.111590929898984,-0.0768608661152989,-0.0455590482294178,0.661422569455041
4.86,4,0.446272164067507,0.11012095502589,-0.0840988392793563,0.155145929339478,0.0605232907091484,-0.0480259610787276,0.0255439924314096,-0.157322916348766,-0.00340790022481969,0.0312712993764051,0.429019033377077,-0.0275327819655955,0.327550075787632,-0.118477940204067,-0.0842717774997202,-0.0486566769412315,0.650227362895596
4.89,4,0.477970722576576,0.108249153111362,-0.0827356791894284,0.17434207179988,0.06582333852148,-0.0531276385794651,0.0235297708059938,-0.161188594215725,0.000498468988107954,0.0153355510116886,0.432009847305724,-0.0272174240343435,0.353139845983256,-0.124581642099267,-0.0828780989003164,-0.053977070426547,0.645196895250303
4.92,4,0.510528885769219,0.11060416475926,-0.0843429873551642,0.19424013997823,0.0688141524501277,-0.0595517848241625,0.0319325337483851,-0.158096051922157,0.00137333292641987,0.021596931872514,0.447030040386161,-0.0550146997487309,0.379497665334025,-0.130792158777632,-0.0843073824274422,-0.0587430443230486,0.639418724122847
4.95,4,0.543951740063682,0.114530879645171,-0.0879339986368399,0.217439293598234,0.0806604205450606,-0.0668151900794498,0.0384228034302805,-0.148248746197902,0.000823999755851924,0.032212286751915,0.474878180283008,-0.0587074393953266,0.407366150903857,-0.136351613920509,-0.0885545416628519,-0.0671305480107018,0.625904110843226
4.98,4,0.576047039195939,0.110644856105228,-0.0852076784569842,0.242144027019054,0.0828780989003164,-0.0727154352448093,0.0304676452935372,-0.15744499038667,0.000417086296171962,0.0493840347504095,0.508845281329793,-0.0483158869187496,0.436663920000814,-0.139174576047039,-0.0849991353088982,-0.0730511388490453,0.60737428917305
5.01,4,0.611005991800694,0.119434186834315,-0.0900092572812077,0.266390982797733,0.0820591855627105,-0.075629952899767,0.0445468509984639,-0.156712546159246,0.00186162907803583,0.0600756859035005,0.545202998952198,-0.0778578040915148,0.468408256274097,-0.142338328196051,-0.0908281706188136,-0.0768354340240689,0.568681905575732
5.04,4,0.644271167129531,0.113650929288614,-0.0904314299956257,0.289610482090721,0.0772423474837489,-0.0794905443484807,0.0573442793053987,-0.136773786634927,-0.0128076011434268,0.0779391867834508,0.545406455682038,-0.0588447726879686,0.501403851435896,-0.142618081199581,-0.0899990844447157,-0.0796227912228767,0.535345520391451
5.07,4,0.678731650746178,0.118111718090355,-0.0899583930987477,0.312804549292479,0.0787072359385968,-0.0820846176539405,0.0498570716472874,-0.166946419670197,-0.00605283771273944,0.0774356313770969,0.576077557705415,-0.0303353984191412,0.534689372437717,-0.143762525304931,-0.0898973560797957,-0.0839615059867143,0.52033041372926
5.1,4,0.718075095878984,0.134983367412336,-0.102933846044293,0.333750419629505,0.0666829432050539,-0.0835342468540503,0.0512609230831833,-0.158767459130629,0.00053916033407595,0.0675120293791518,0.633182775353252,-0.0714997812840154,0.571342102318389,-0.146509191157771,-0.102465895565661,-0.0845515305032502,0.502192246264026
5.13,4,0.758674886318552,0.139678131453393,-0.108355967894528,0.352860092979726,0.0660318816695659,-0.087318542029074,0.0751874345123651,-0.145807265439823,-0.00352997426272368,0.054709514653971,0.652592547379986,-0.106972462131616,0.609988708151494,-0.148452202927742,-0.108869696137374,-0.0862249621061841,0.472884304330576
5.16,4,0.799956256803084,0.141961933245847,-0.10823898027487,0.376054160181483,0.0813521734265165,-0.0962655517237871,0.075512965280109,-0.137099317402671,-0.0130720948922188,0.0516576637063712,0.667378765221107,-0.110370189519944,0.649627165542568,-0.1500951160212,-0.109881893368328,-0.0962096011230811,0.430397452721742
5.19,4,0.838358714560381,0.133727022105574,-0.105533005767998,0.401526942757449,0.0880052084922839,-0.103111870682903,0.08727276426486,-0.142450229397463,-0.00658182521032339,0.0523341573330892,0.662409334594765,-0.0943174535355693,0.689265622933643,-0.148859116387422,-0.104403820917386,-0.102715130059715,0.404899238054547
5.22,4,0.879004282764163,0.140924303923663,-0.108615375225074,0.428988514867601,0.0929390341909034,-0.10806095563626,0.0754519282611571,-0.136794132307911,-0.00936918240913114,0.0440382091738639,0.713588874986012,-0.097883032726015,0.730750450148015,-0.147999511703848,-0.108701844335256,-0.110441399375388,0.381043936480809
5.25,4,0.921292764061403,0.145603808709983,-0.114663126519567,0.453398236030152,0.0783461002431308,-0.109393597216712,0.0985849584439629,-0.135268206834112,-0.00560523290709148,0.0428123823765781,0.716620380260628,-0.0728883734651733,0.773918881801813,-0.14714499343852,-0.114836064739931,-0.110339671010468,0.357804091514837
5.28,4,0.965061393068229,0.151687164932198,-0.115009002960295,0.475636056601662,0.0728883734651733,-0.110766930143132,0.0951668853826513,-0.135634428947824,-0.010650959807123,0.0258135725984476,0.739036225470748,-0.112872707296976,0.817412844223355,-0.147434919278542,-0.116336558122501,-0.11195206559445,0.34667500839259
5.31,4,1.01092053997416,0.157272052166306,-0.122979420351777,0.494069236325165,0.0571916867580187,-0.10963774529252,0.112338633381146,-0.138136946724855,-0.010956144901883,-0.00390636921292764,0.749844864243497,-0.0997395753858048,0.862122460605691,-0.1485691905474,-0.122618284656311,-0.109932757550788,0.335276345103305
5.34,4,1.05847346415601,0.164225185908587,-0.126489048941516,0.509170812097537,0.0471765292316457,-0.105070141707612,0.10920539974161,-0.147353536586606,-0.00829086174097924,-0.0342061627043468,0.7644632302825,-0.142989389731539,0.907762891527044,-0.15047659738965,-0.127419863480534,-0.109291868851792,0.315078178248441
5.37,4,1.10579749951679,0.162343211157567,-0.127536851100192,0.513158564002401,0.00488804793440555,-0.0958332061728772,0.127923418886888,-0.127821690521968,-0.00839259010589923,-0.0498468988107954,0.704555396181117,-0.159113335571357,0.952085940122684,-0.153492843409528,-0.128381196529028,-0.0956246630247912,0.282245348470514
5.4,4,1.1490117089348,0.149286375520086,-0.119098483230079,0.513087354146957,-0.000203456729839981,-0.0919166641234575,0.135959959715568,-0.0988291065197709,-0.0248725852229377,-0.0345825576545508,0.600995920692567,-0.122999766024761,0.991042817468795,-0.157760348317921,-0.119724112674337,-0.0924812565487635,0.241447187719352
5.43,4,1.18121890926847,0.112949003570666,-0.0958586382641072,0.510650959807123,-0.00963367615792311,-0.0883103935870439,0.136509292886135,-0.0884121219519639,-0.0313628549048331,0.032919298888109,0.45951719718009,-0.0363628040406507,1.02299061047192,-0.158019755648467,-0.0953347371847692,-0.0895057018748538,0.177994120100508
5.46,4,1.20215460676901,0.0748313852351451,-0.0572679830317087,0.503285826186916,-0.032563249610889,-0.0549282306385489,0.153457238481806,-0.0904059979043957,-0.0371613717052726,0.164092939034191,0.262240465508998,0.0800347911008026,1.04423657948546,-0.157684052044231,-0.0364034953866187,-0.0456149988301238,0.114312163660593
5.49,4,1.22565385906552,0.0861028880682801,0.0054475539414655,0.500859604683574,0.00387076428520564,-0.00170903653065584,0.0675374614703818,-0.117709891048921,-0.0331939654733929,0.305246131778924,0.0508133182775353,0.181727551093071,1.05386516922514,-0.171554714601072,0.0065716523738314,-0.011073132521541,0.0699077323730176
5.52,4,1.24938200018311,0.0936613055818354,-0.0021413820815658,0.500315357931252,0.000183111056855983,-0.0075940224412773,0.0464796899319437,-0.180781477299315,-0.0297352010661133,0.398505610319325,-0.257204911445458,0.224992624693543,1.04617450483718,-0.202988779361349,-0.00250760419527777,-0.011093478194525,0.0363373719494207
5.55,4,1.24188970610675,-0.00155135756502986,0.00823999755851924,0.499532049521368,0.000152592547379986,-0.00966928108564511,0.032848089032665,-0.155369731742302,-0.0123803420107629,0.412757754244616,-0.473677785576952,0.200079348124638,1.01391644032105,-0.227754549801121,0.0164545630258085,-0.010986663411359,0.0164647358623005
5.58,4,1.23086235134943,-0.0186620685445723,0.0076245409507533,0.496546322010966,-0.00830103457747124,-0.0348317921486048,0.109388510798466,-0.203894161809137,0.00786360260831528,0.320841090121158,-0.56561988179164,0.108920560319834,0.975122328358816,-0.255531479842525,-0.0292316456597593,-0.102415031383201,0.011118910285755
5.61,4,1.18664103111871,-0.140405489262571,-0.098254341257973,0.43621122877692,-0.312657043163345,-0.13103630685344,-0.188716289763075,-0.00471002329579557,-0.00633767713451542,0.174433627328308,-0.969684947253843,0.0279142633340454,0.933342488886176,-0.253059480574969,-0.0990579953408409,-0.15581733654795,0.00725323241879533
5.64,4,1.10111290831222,-0.287352112389498,-0.054170354319895,0.289376506851405,-0.512334564246549,0.00973540452284311,-0.211116875718457,-0.0159001434369945,-0.011179947304707,0.0614795373393963,-1.98273161005483,-0.181580044963937,0.839091158787805,-0.261772515030366,-0.0555640329192989,0.0194809818821782,0.00942513300983713
5.67,4,0.9956765444909,-0.358877325764743,-0.0338348541723889,0.169799900306202,-0.368383841466516,0.0310729290648111,-0.010610268461155,-0.175430565304524,-0.0154118472853786,-0.0471460107221697,-2.10088401949115,-0.0727713858455153,0.716269417401654,-0.279183324686422,-0.032059694204535,0.0423088269702241,0.00343333231604968
5.7,4,0.868775495671458,-0.429705699840286,-0.0125227617216508,0.0985595263527329,-0.207358012634663,0.0263120415865556,0.0406811731315043,-0.179662465285195,-0.0228176722515539,0.0794905443484807,-2.25077567878252,-0.0580818099510687,0.584363333028148,-0.284178187403994,-0.0033112582781457,0.0253151036103397,0.00200913520716982
5.73,4,0.751497950173447,-0.403892127241839,0.0054831588691875,0.0664642272204759,-0.0835189875993123,0.0087079480371512,0.0319528794213691,-0.174453973001292,-0.0152083905555386,0.110232856227302,-2.27787102877895,-0.0392518896043784,0.449949644459365,-0.301304157638274,0.00579851680043947,-0.00182602415031383,0.00169377727591784
5.76,4,0.641544846949675,-0.369818211411888,0.00720236823633534,0.0591397849462366,-0.0117903174942269,-0.00825017039501124,0.137546922208319,-0.300963367615792,-0.00902330596840317,0.0301014231798252,-2.05506047751294,0.10788293099765,0.315551215145319,-0.325754570146794,0.00798567664621926,-0.0257067578152816,0.00167851802117985
5.79,4,0.526093325601978,-0.379741813409833,0.0200048829615162,0.0578173162022767,-0.00645975117241941,-0.0209916481012401,0.0821049633269244,-0.252296517838069,-0.00279753003529974,-0.0962502924690491,-1.92605365153966,-0.276472263761305,0.197642953784804,-0.328216396577858,0.0226701661224199,-0.0292774234239733,0.00167851802117985
5.82,4,0.419263283181249,-0.356435845006663,0.0268766340118615,0.054017761772515,-0.0128838974171168,-0.0248013753674937,0.122674235257017,-0.278176213873714,-0.00715150405387534,0.0138757489750867,-1.59237952818384,-0.25863928139083,0.0931323180842514,-0.32588681702119,0.0290739666941333,-0.0250455234433017,0.00167851802117985
5.85,4,0.325006866664632,-0.315617338582517,0.0302336700542212,0.0482294178085676,-0.0209763888465021,-0.0228888821069979,0.105319376201666,-0.244504125085198,-0.0150252794986826,-0.0522985524053672,-1.17522202215644,-0.267906735435041,0.0114495274717449,-0.313384400972523,0.0313882869960631,-0.0189723400575783,0.00167851802117985
5.88,4,0.252932320118819,-0.245139927365947,0.0258339182714316,0.0392824081138544,-0.032573422447381,-0.0168869085767184,0.0997650074770348,-0.225216427096367,-0.010895107882931,-0.0250200913520717,-0.779285053051342,-0.0925575528224535,-0.0470849737032177,-0.299956256803084,0.0252693258461257,-0.00989816990671509,0.00167851802117985
5.91,4,0.201773125400555,-0.174637084058148,0.0181025625375123,0.0306405835139012,-0.0260068564917956,-0.011352885525071,0.0605385499638864,-0.185237179682811,-0.00930814539017914,-0.0356761375774407,-0.463560899685659,-0.0253659677927997,-0.0828018026266264,-0.284478286080508,0.0161036001668345,-0.00645466475417341,0.00167851802117985
5.94,4,0.170929085156814,-0.107414980519018,0.00984730572425509,0.0253913998840297,-0.0158441928362885,-0.0086723431094292,0.0491856644388155,-0.170669677826268,-0.00664286222927539,-0.0810724204229865,-0.215628528702658,0.0848261970885342,-0.102745648569191,-0.273593351034069,0.00561031932533748,-0.0076245409507533,0.00167851802117985
5.97,4,0.150766523229672,-0.0702230903042695,0.000447604805647959,0.0236518448438978,-0.00253303628650777,-0.00916572567929116,0.0230414746543779,-0.161290322580645,-0.00320444349497971,-0.119485051016775,-0.0575019582710247,0.135893836278369,-0.11019725129958,-0.260882391837316,-0.000228888821069979,-0.010533972187465,0.00167851802117985
6,4,0.135191910560422,-0.054460280159917,0.000167851802117985,0.02223782057151,-0.00716676330861334,-0.010813725190995,0.00788394828129927,-0.153050325022126,-0.00778221991637928,-0.149744153162226,0.0495264544612974,0.152455214087344,-0.109927671132542,-0.245038199001027,-0.00203965371664581,-0.00942513300983713,0.00167851802117985
6.03,4,0.123076062298451,-0.043565172276986,-0.00267036957914975,0.021210364085818,-0.000361135695465967,-0.00955737988423312,0.000152592547379986,-0.149082918790246,-0.0127669097974588,-0.179245378989024,0.144225389365317,0.150593585009308,-0.104129154332102,-0.227098401847387,-0.00299081392864772,-0.010513626514481,0.00167851802117985
6.06,4,0.116931669057283,-0.021866512039552,-0.00381481368449965,0.021210364085818,0.000152592547379986,-0.0100812809635711,-0.00894192327646718,-0.14737388225959,-0.0189723400575783,-0.190816980498672,0.255038097272663,0.15202795495468,-0.0919522690511795,-0.208777123325297,-0.00642414624469741,-0.010986663411359,0.00167851802117985
6.09,4,0.115507471948403,-0.0087384665466272,-0.00748720765811131,0.021210364085818,0.000152592547379986,-0.010686564734845,-0.0134993540248828,-0.149184647155166,-0.0247098198390657,-0.185679698070213,0.380591245256915,0.162800988799707,-0.0730053610848313,-0.188431450341299,-0.00908434298735517,-0.010986663411359,0.00167851802117985
6.12,4,0.118009989725435,-0.000422172714417961,-0.0101728364919991,0.0211747591580961,0.000152592547379986,-0.010991749829605,-0.0472528255053356,-0.131300800602232,-0.0236314991709138,-0.181137526576535,0.422777998189235,0.121397544277271,-0.0564388968576108,-0.174362417472864,-0.011230811487167,-0.010986663411359,0.00167851802117985
6.15,4,0.122129988504695,0.000152592547379986,-0.0114749595629749,0.0209814752647481,0.000152592547379986,-0.011352885525071,-0.0628986480300302,-0.113640756452122,-0.0294503616443373,-0.156193731498154,0.19838557084872,0.00444552954700359,-0.0471510971404157,-0.169194616534928,-0.0119530828780989,-0.010986663411359,0.00167851802117985
6.18,4,0.123788160852891,-0.0053763440860215,-0.0118818730226549,0.0208187098808761,0.000152592547379986,-0.011240984323659,-0.0415967284157842,-0.13042593666392,-0.0364289274778486,-0.126428011922564,0.201915545111443,-0.00634784997100742,-0.0427666046123641,-0.166488642028057,-0.011225725068921,-0.010986663411359,0.00167851802117985
6.21,4,0.125436160364594,-0.00292977690969573,-0.010793379518011,0.0206661173334961,0.000152592547379986,-0.011052786848557,-0.0452386038799198,-0.133315022227648,-0.0364696188238166,-0.100375377666555,0.166707358012635,0.0362254707480087,-0.0519831944741152,-0.177307453637298,-0.011347799106825,-0.010605182042909,0.00167851802117985
6.24,4,0.127791172012492,6.61234371979939e-05,-0.0120497248247729,0.0205440432955921,0.000152592547379986,-0.010727256080813,-0.0467238380077517,-0.13378297270628,-0.0353709524826807,-0.076189458906827,0.125588752911974,0.0730307931760613,-0.0778323720002848,-0.205567593412071,-0.0124973296304209,-0.010528885769219,0.00167851802117985
6.27,4,0.129708751691234,0.000152592547379986,-0.0123905148472549,0.0190333770765302,-0.00736004720196132,-0.0101321451460311,-0.0422681356242561,-0.145278277942239,-0.0319732250943531,-0.0523392437513352,0.0972217983540351,0.0637785983865881,-0.0985137485885189,-0.228136031169571,-0.0127109591967528,-0.00736004720196132,0.00167851802117985
6.3,4,0.129347615995768,-0.00593076367483545,-0.0125888851588488,0.0184636982329783,-0.000167851802117985,-0.00835698517817723,-0.0404573707286803,-0.161473433637501,-0.0250150049338257,-0.0302438428907132,0.0729087191381573,-0.00126143172500788,-0.109317300943022,-0.238598793501592,-0.0117903174942269,-0.00925219478947315,0.00167851802117985
6.33,4,0.128274381745862,-0.00671915850296538,-0.011317280597349,0.0187180191452783,0.000152592547379986,-0.00897244178594317,-0.0352488784447768,-0.175389873958556,-0.0183009328491063,-0.0145675018565427,0.0660827458520259,-0.0858841720837021,-0.106240017904192,-0.234438103376364,-0.011327453433841,-0.00961333048493912,0.00167851802117985
6.36,4,0.127338480788598,-0.00473545538702556,-0.010930712810653,0.0189672536393323,0.000152592547379986,-0.00928779971719515,-0.0455437889746798,-0.17296873887346,-0.0135807367168188,-0.010925626392407,0.0384940132857245,-0.17273985005239,-0.102923673207801,-0.230170598467971,-0.011271502833135,-0.0097811822870571,0.00167851802117985
6.39,4,0.125146234524572,-0.00821456546728924,-0.010706910407829,0.0191401918596962,0.000152592547379986,-0.00964893541266111,-0.0259305602181056,-0.173151849930316,-0.0134179713329468,-0.00925219478947315,0.0241655730867438,-0.207271543524481,-0.101382488479263,-0.226442253893653,-0.010625527715893,-0.0100711081270791,0.00167851802117985
6.42,4,0.122765790785445,-0.00814844203009125,-0.010472935168513,0.0193029572435682,0.000152592547379986,-0.00984730572425509,-0.0263985106967376,-0.170710369172236,-0.0140283415224667,0.00184128340505183,0.00670898566647338,-0.183462019714957,-0.100263476465143,-0.222947884558651,-0.0102338735109511,-0.0100711081270791,0.00167851802117985
6.45,4,0.120034384187343,-0.00709555345316935,-0.011205379395937,0.0193843399355042,0.000152592547379986,-0.00989816990671509,-0.0247708568580177,-0.165420494196397,-0.0145573290200507,0.0137536749371827,-0.0312509537034211,-0.136041342407503,-0.101708019247007,-0.22169153925189,-0.010422070986053,-0.0100711081270791,0.00167851802117985
6.48,4,0.116697693817967,-0.00252794986826177,-0.0100558488723411,0.0195318460646382,0.000152592547379986,-0.00993886125268309,-0.0101626636555071,-0.176468194626708,-0.0116682434563229,0.0243690298165838,0.0350149032054608,-0.0621458581296223,-0.102628660949533,-0.219229712820826,-0.010742515335551,-0.0100711081270791,0.00167851802117985
6.51,4,0.110390535192928,-0.011098564612771,-0.00999989827163508,0.0195877966653442,0.000152592547379986,-0.00996429334391308,-0.0607420066937264,-0.158645385092725,-0.00239061657561978,0.0236416720074058,0.0250811283710237,-0.0665100049846899,-0.0997090568763288,-0.210008036540829,-0.00882493565680919,-0.0100711081270791,0.00167851802117985
6.54,4,0.103116957101149,-0.0161442915128025,-0.00797550380972727,0.0196844386120182,0.000152592547379986,-0.00988799707022309,-0.0665812148401339,-0.181249427777947,0.0174260689107944,-0.0154983163955606,-0.0277820164596494,-0.134683268735822,-0.0995412050742108,-0.202571693065177,-0.00698365225175736,-0.0100711081270791,0.00167851802117985
6.57,4,0.0911333557135736,-0.033066805017243,-0.00517288735618152,0.0148269091870886,-0.0276955473494675,-0.00504064048178554,-0.0907722200181076,-0.307657094027528,0.0126448357595548,-0.0589465010528886,0.140949736014893,0.0173853775648264,-0.0986154769534389,-0.189647104302093,-0.00265002390616576,-0.00171920936714784,0.1108076214891
6.6,4,0.0907264422538936,-0.0065563931190934,0.000940987375509913,-0.00646483759066541,-0.0775322733237709,0.0126448357595548,0.0115461694184189,-0.11032441175573,-0.021922462640258,-0.0344096194341868,0.192678609576708,-0.10483108005005,-0.0854721722057761,-0.17612231818598,-0.00118513545131789,0.0275582140568255,0.23601997945087
6.63,4,0.11007009084343,0.0513626514481033,-0.0241910051779738,-0.0275276955473495,-0.064724672180344,0.0250302641885637,-0.0535599841303751,-0.193639942625202,0.00747703482161931,-0.0703502507604195,0.268725648772647,-0.142531612089399,-0.0734580523087252,-0.183411155532497,-0.0368053224280526,0.0294859665720593,0.327377137567268
6.66,4,0.128147221289712,0.0506098615476953,-0.0366679891354106,-0.0372427543972086,-0.0192775251523382,0.0223954995371359,0.0319935707673371,-0.187536240730003,0.0010681478316599,-0.0460015666168198,0.260490737632374,-0.0369121372112186,-0.0565406252225308,-0.184626809493291,-0.0365103101697846,0.0159510076194545,0.465804010132145
6.69,4,0.14920499282815,0.0600044760480565,-0.0466628009887997,-0.032985422325307,0.021454512161626,0.00468967762281157,-0.00804671366517126,-0.159784742779829,-0.00133264158045188,-0.0245012766909797,0.262011576687928,-0.0210882900479141,-0.0403098645995463,-0.189423301899269,-0.0466119368063397,-0.000361135695465967,0.577486495559557
6.72,4,0.162439853104241,0.0375835444196905,-0.0354014709921567,-0.0263323872595396,0.021693573819188,-0.000885036774803919,-0.00513728242845953,-0.162327951902829,0.000885036774803919,0.00335703604235969,0.149759412416964,-0.0022176783552558,-0.0286721396526994,-0.19106112857448,-0.0310932747377951,-0.0021413820815658,0.621046581418297
6.75,4,0.171193578905606,0.0238858200832138,-0.0230821660003459,-0.0185450809249143,0.0259966836553036,-0.00339772738832769,-0.0116275521103549,-0.159642323068941,-0.00149540696432386,0.011220638650675,0.120258186590167,-0.0101219723095391,-0.0204982655313781,-0.191605375326802,-0.0200201422162542,-0.00569678843551948,0.633498133284504
6.78,4,0.177312540055544,0.0168462172307505,-0.0156763410341706,-0.0127669097974588,0.0162867112236905,-0.00241096224860378,-0.0122379222998749,-0.158177434614093,-0.00273649301634775,0.0174209824925484,0.0893988870916878,-0.00825017039501124,-0.0144708599098687,-0.191671498764,-0.0133671071504868,-0.00318409782199571,0.627531764681946
6.81,4,0.179667551703441,0.00640888698995941,-0.010762861008535,-0.00863165176346121,0.0149845881527146,-0.00165308592994985,-0.00997955259865108,-0.158177434614093,-0.00318409782199571,0.0146488845484787,0.0857620980457981,-0.0142267118340607,-0.010478021586759,-0.190048931343526,-0.00713115838089134,-0.00301115960163172,0.619220557267983
6.84,4,0.181396933907081,0.0054424675232195,-0.00422172714417961,-0.00370799890133366,0.0171056245612964,-0.00270088808862575,-0.0143945636361787,-0.159560940377005,-0.00391654204941964,0.010879848628193,0.104510635700552,-0.0167444888658305,-0.0116631570380769,-0.192948189743746,-0.00376394950203965,-0.00491348002563555,0.621336507258319
6.87,4,0.185857722708823,0.0133264158045188,-0.00738547929319132,0.00343333231604968,0.0267494735557115,-0.00457269000315358,-0.0120141198970509,-0.160578224026205,-0.00373343099256366,0.00804671366517126,0.146809289834284,-0.0181025625375123,-0.00536108483128351,-0.191132338429924,-0.0100609352905871,-0.00896735536769718,0.635553046255888
6.9,4,0.191488387707144,0.0186875006358023,-0.011220638650675,0.0114139225440229,0.0274819177831355,-0.00738547929319132,-0.010671305480107,-0.161717581713309,-0.0043438011820836,0.00556454156112349,0.168457085889259,-0.0129245887630848,0.00395214697714164,-0.187266660562965,-0.0136926379182307,-0.0116275521103549,0.65019684438612
6.93,4,0.200791446679078,0.0303964354380932,-0.0186569821263263,0.021566413363038,0.0374360382905566,-0.011022268339081,-0.00568661559902748,-0.160679952391125,-0.00312306080304371,0.00563575141656748,0.214219590848516,-0.00822982472202724,0.0155186620685446,-0.185089673553677,-0.0223649810276599,-0.0160629088208665,0.666641234575437
6.96,4,0.211701813816747,0.0344859157078768,-0.0257067578152816,0.0342773725597908,0.043870357371746,-0.0160781680756045,-5.08641824599953e-05,-0.161086865850805,-0.00530004781233151,0.00679545477665537,0.211920529801325,-0.00391145563117364,0.0285195471053194,-0.182948291472111,-0.0265816217535936,-0.0208797468998281,0.689336832789087
6.99,4,0.225842056540625,0.0465051220231737,-0.0302133243812372,0.0457116407767978,0.0382956429741305,-0.0197454756309702,-0.0147404400769066,-0.163731803338725,-0.00287891272723574,7.12098554439934e-05,0.252967925046541,-0.00311797438479771,0.0420799381491541,-0.183573920916369,-0.0332956938383129,-0.021759697256386,0.719534897915586
7.02,4,0.244824569434695,0.0618101545253863,-0.0443688263598539,0.0605690684733624,0.0567339091158788,-0.0236925361898658,0.0129907122002828,-0.156570126448358,-0.00346893724377168,0.00590024516535946,0.298272652363659,-0.00255338195949177,0.0590889207637766,-0.185501673431603,-0.0464847763501897,-0.0290485346029033,0.731376079592273
7.05,4,0.26331878617715,0.0610268461155024,-0.0462508011108737,0.0796126183863847,0.0633665985086622,-0.0320647806227811,-0.00580868963693147,-0.163792840357677,-0.00224819686473179,-0.00442009745577359,0.311990722373119,-0.000386567786695964,0.0772270882290109,-0.185867895545315,-0.0461795912554297,-0.0371918902147486,0.733939634388256
7.08,4,0.28621784112064,0.0744905952126631,-0.054673909726249,0.0960722678304392,0.0551978108055869,-0.0352997426272368,0.00416069012522762,-0.158238471633045,-0.00190232042400382,-0.00789920753603727,0.351751253802098,-0.0121361939349549,0.0972370576087731,-0.188746808272551,-0.0553402305164749,-0.0364594459873246,0.732515437279377
7.11,4,0.312133142084007,0.0796278776411227,-0.0598264514094465,0.116494237088127,0.0679494613483077,-0.0406608274585203,0.011220638650675,-0.160028890855637,-0.00381481368449965,-0.00199896237067782,0.384105960264901,0.00155644398327586,0.120863470361441,-0.19101026439202,-0.0599790439568265,-0.0444400362152979,0.731203141371909
7.14,4,0.343455305642872,0.0958586382641072,-0.0715862503941974,0.139439069795831,0.0685445722830897,-0.0479140598773156,0.00825017039501124,-0.158421582689901,-0.00086469110181992,-0.00188197475101983,0.424634540849025,-0.00938952808211514,0.147740104373302,-0.195481226030254,-0.0722576576026694,-0.0495518865525274,0.729717907244077
7.17,4,0.371898556474502,0.0951872310556352,-0.0734173609627572,0.158513138218329,0.0641499069185461,-0.0503453677989034,0.0189926857305623,-0.160334075950397,-0.00485244300668355,-0.00768049155145929,0.430575477360352,-0.0154016744488866,0.173162022766808,-0.198502558468378,-0.0728375092827133,-0.0507421084220913,0.723461612801497
7.2,4,0.403973509933775,0.107903276670634,-0.0804264453057446,0.178960539567248,0.0701010162663656,-0.0567644276253548,0.0224107587918739,-0.161188594215725,-0.00237027090263578,-0.0143436994537187,0.487116102582883,-0.0353099154637288,0.200679545477666,-0.203059989216793,-0.0805281736706646,-0.0563575141656748,0.71752067629017
7.23,4,0.43956826481928,0.119774976856797,-0.0889919736320078,0.202937915178889,0.0857977029735201,-0.0665913876766259,0.0406404817855363,-0.147760450046286,-0.00086469110181992,0.00384533219397565,0.529740287484359,-0.0296029541917173,0.231452375865963,-0.207892086550493,-0.0901618498285877,-0.0662251655629139,0.703695791497543
7.26,4,0.475519068982004,0.121422976368501,-0.0930611082288074,0.231706696778263,0.0997853531500188,-0.075624866481521,0.0347402366201768,-0.156509089429406,0.00137333292641987,0.021566413363038,0.558915982543413,-0.0236213263344218,0.264035971149836,-0.211218604083377,-0.0929695527003794,-0.076214890998057,0.69248532568336
7.29,4,0.513036489964497,0.125919370097964,-0.0960010579749952,0.262387971638132,0.104047771640166,-0.0834986419263283,0.0367748039185766,-0.164443901893165,0.00157678965625985,0.0285042878505814,0.598671427554145,-0.0314645832697531,0.298796553442996,-0.214016134118676,-0.0950142928352713,-0.0842005676442763,0.682627847122613
7.32,4,0.554684082562741,0.140558081809951,-0.105522832931506,0.292641987365337,0.100884019491155,-0.087405011139256,0.0414136173589282,-0.158299508651997,0.00527970213934751,0.0397859635202083,0.646422722047589,-0.0474359365621916,0.336364838607949,-0.218085268715476,-0.106367178360342,-0.0882290108951079,0.666219061861019
7.35,4,0.596779279966633,0.142785933001699,-0.109805597094638,0.320912299976602,0.0933764661600594,-0.0905077262693157,0.0463372702210557,-0.169977924944812,0.00230923388368379,0.0320546077862891,0.687877030752485,-0.120019124932605,0.376333913185013,-0.220221564378796,-0.10879848628193,-0.0911384421318196,0.641265093946145
7.38,4,0.642455315815709,0.154271065401166,-0.116173792738629,0.348551896725364,0.0920845159255755,-0.0957670827356792,0.0669270912808618,-0.129123813592944,-0.00794498530025127,0.021993672495702,0.723848180588193,-0.125380209763888,0.419100517797377,-0.223130995615507,-0.117282631916257,-0.0954008606219672,0.600044760480565
7.41,4,0.687348043254901,0.152348399304178,-0.118004903307189,0.378276924954985,0.107028412732322,-0.104485203609322,0.0741701508631652,-0.143121636605935,-0.00717184972685934,0.043733024079104,0.732718894009217,-0.102420117801447,0.462314727215389,-0.224789167963703,-0.117089348022909,-0.104597104810734,0.561133660898668
7.44,4,0.734021017080192,0.160150964893541,-0.122328358816289,0.411318297880998,0.10778120263273,-0.111941892757958,0.0707520778018535,-0.156875311543118,-0.00232957955666779,0.0280566830449334,0.794061098055971,-0.112135176651306,0.508529923398541,-0.225216427096367,-0.122735272275969,-0.113488163904742,0.506922615232805
7.47,4,0.7814366079694,0.162836593727429,-0.124423963133641,0.442284412162643,0.104709006012146,-0.115176854762413,0.0817794325591805,-0.148533585619678,0.00340790022481969,0.0152796004109826,0.828903063041068,-0.159469384848577,0.557288328704693,-0.223924476861883,-0.124576555681021,-0.116601051871293,0.456251716666158
7.5,4,0.830418815678376,0.166946419670197,-0.12890001119012,0.470778527176733,0.0920234789066235,-0.117069002349925,0.0960620949939472,-0.140517390463983,-0.0065207881913714,-0.000203456729839981,0.839360738954843,-0.203385519984537,0.607420066937264,-0.222754600665304,-0.128686381623788,-0.118035421816665,0.418012024292734
7.53,4,0.881852676981923,0.17815688548438,-0.134271268857896,0.497004099653106,0.0852280241299682,-0.118991668446913,0.0913012075156916,-0.163182470168157,-0.00127160456149988,0.0282906582842494,0.918902147485783,-0.190537227495142,0.659993285927915,-0.221635588651184,-0.135034231594796,-0.120222581662445,0.38853114413892
7.56,4,0.936562191635894,0.187353129673147,-0.144973092847479,0.515345723848181,0.0490228990549435,-0.107211523789178,0.105787326680298,-0.168472345143997,-0.00961333048493912,0.0506200343841873,0.958464308603168,-0.16920478937142,0.716594948169398,-0.21973326822718,-0.144149093091627,-0.11352885525071,0.346924242886644
7.59,4,0.996958321888892,0.207200333669037,-0.15525783054089,0.51763461205888,0.00146488845484787,-0.0952177495651112,0.109856461277098,-0.162165186518957,0.00173955504013184,-0.000295012258267973,1.02005066072573,-0.182429476811019,0.775973794773197,-0.22075055187638,-0.156519262265898,-0.0944751325011953,0.318837041332235
7.62,4,1.06009094515824,0.215389467045096,-0.166498814864549,0.517746513260292,0.000152592547379986,-0.0940987375509914,0.113315225684378,-0.0931526637572354,-0.0142521439252907,0.0807926674194566,0.981109042634358,-0.214351837722912,0.836868394014303,-0.222968230231635,-0.167546617023225,-0.0934476760155034,0.254951628162481
7.65,4,1.11315246030051,0.183375550604775,-0.146234524572487,0.516566464227221,-0.00641905982645141,-0.0912401704967396,0.136875514999847,-0.0740684224982452,-0.043427838984344,0.198533076977854,0.814355906857509,-0.0421664072593361,0.890825118767866,-0.222093366293324,-0.146448154138819,-0.0907315286721397,0.158268990142521
7.68,4,1.15339620146285,0.140374970753095,-0.101779229102451,0.514186020488093,-0.00951160212001912,-0.0807621489099806,0.163772494684693,-0.0644652648497981,-0.0476190476190476,0.356975005340739,0.522456536556088,0.133752454196804,0.930875576036866,-0.222296823023164,-0.0831222469761244,-0.0645873388877021,0.0701518804488255
7.71,4,1.19467757194739,0.148279264707378,-0.00860621967223121,0.510727256080813,-0.00622577593310343,-0.0244046347443058,0.122714926602985,-0.159764397106845,-0.0469272947375917,0.540452284310434,0.274127424949899,0.387635934527624,0.954110334584592,-0.24034343495997,-0.0126753542690308,-0.010630614134139,0.0192164881333862
7.74,4,1.22861415448469,0.127099419131036,-0.0174769330932544,0.507258318837041,-0.0133060701315348,-0.0138960946480707,-0.021291746777754,-0.130914232815536,-0.0256864121422976,0.590777306436354,-0.182907600126143,0.540147099215674,0.95705028433078,-0.271340067751091,-0.0197251299579862,-0.00897244178594317,0.00524918362987152
7.77,4,1.23040457370729,0.0267952513199255,-0.00711081270790735,0.502945036164434,-0.010630614134139,-0.011210465814183,0.0065411338643554,-0.142918179876095,-0.000701925717947935,0.532944730979339,-0.575904619485051,0.364452040162358,0.929125848160243,-0.301065095980712,-0.000946073793755913,-0.00714133121738334,0.00238044373912778
7.8,4,1.21319213436282,-0.0351064587338888,-0.0188807845291503,0.500523901079338,-0.00700908434298736,-0.0559302550330109,0.0823898027487004,-0.190323597928811,0.0101626636555071,0.336792097740613,-0.650725831883704,0.107008067059338,0.885433515427106,-0.32751447085991,-0.0464288257494837,-0.132450331125828,0.00178024638609984
7.83,4,1.1537217322306,-0.190710165715506,-0.0834884690898363,0.424136071860917,-0.37371949420657,-0.111199275694042,-0.225440229499191,-0.00021362956633198,0.0128889838353628,0.0477614673299356,-1.15534938606932,-0.263313699758904,0.835311950031027,-0.318155461287271,-0.0856552832626321,-0.12757754244616,0.00167851802117985
7.86,4,1.06114892015341,-0.311298969491663,-0.0454725791192358,0.276070436719871,-0.501490320546078,0.0157577237261066,-0.116021200191249,-0.0832646666870123,0.0119530828780989,0.0904161707408877,-1.98183131402529,-0.0853806166773481,0.734733115634632,-0.32619200211595,-0.0465407269508957,0.0251167332987457,0.00167851802117985
7.89,4,0.9518112735374,-0.372692037720878,-0.0291655222225613,0.162694174016541,-0.349772637104404,0.0275073498743655,-0.00717184972685934,-0.168106123030285,-0.0370799890133366,0.011271502833135,-2.10584836369925,-0.171686961475468,0.612455621000804,-0.339172541479741,-0.0241299681590218,0.0397757906837163,0.00167851802117985
7.92,4,0.831700593076368,-0.409558397167882,-0.010966317738375,0.0939766635130874,-0.199387595243182,0.0249743135878577,-0.0366730755536566,-0.163833531703645,-0.0293486332794173,0.152175461083814,-2.42807295958332,0.0661641285439619,0.476129439171524,-0.355367697175003,-0.00248217210404777,0.0248318938769697,0.00167851802117985
7.95,4,0.719077120273446,-0.381227047537665,0.0032349620044557,0.0661539557074699,-0.0661641285439619,0.00531022064882351,0.0611896114993744,-0.282001200394706,-0.0202337717825861,0.199041718802454,-2.53873307494329,0.285215816726178,0.323526718955046,-0.39534694458856,0.00355031993570767,-0.00784325693533128,0.00167851802117985
7.98,4,0.601072216966257,-0.389528082115136,0.0127770826339508,0.0612303028453424,-0.00728375092827133,-0.010335601875871,0.0567542547888628,-0.273740857163203,-0.00603249203975545,0.207393617562385,-2.29210282703126,0.181666514074119,0.182744834742271,-0.418062888475194,0.0160425631478825,-0.0285958433790094,0.00167851802117985
8.01,4,0.488397879980875,-0.374401074251534,0.0232449313842179,0.0602333648691265,-0.0054628131962035,-0.0229295734529659,0.127923418886888,-0.344218268379772,0.0252184616636657,0.147434919278542,-2.07434308908353,0.311624500259407,0.0492568742942595,-0.438886684774316,0.0253812270475377,-0.0310271513005971,0.00167851802117985
8.04,4,0.383078503779209,-0.349945575324768,0.0297860652485733,0.0556962797936949,-0.0162053285317545,-0.0265816217535936,0.134637490971608,-0.320454522334463,0.0228176722515539,0.0584225999735506,-1.71553697317423,-0.150151066621906,-0.065513067008474,-0.448479669586271,0.0315561387981811,-0.0240791039765618,0.00167851802117985
8.07,4,0.294157740002645,-0.298572751040173,0.0305592008219652,0.0484328745384075,-0.0254829554124577,-0.02213609220659,0.0940275276955474,-0.255104220709861,0.00519831944741152,-0.143121636605935,-1.36877549567146,-0.357392091636911,-0.156610817794326,-0.45066682943205,0.0316273486536251,-0.0180364391003143,0.00167851802117985
8.1,4,0.229265216020183,-0.219570502843308,0.0243537705618458,0.0390942106387524,-0.0344757428713848,-0.0164393037710705,0.0879238258003479,-0.205216630553097,-0.0163680939156265,-0.144698426262195,-0.95989867854854,-0.311655018768883,-0.225185908586891,-0.45437991475163,0.0226955982136499,-0.00896226894945118,0.00167851802117985
8.13,4,0.185104932808415,-0.151412498346914,0.0158085879085665,0.0297453739026053,-0.0271207820876695,-0.010355947548855,0.0741294595171972,-0.167739900916573,-0.0229194006164739,-0.101311278623819,-0.702800581886247,-0.195165868099002,-0.273934141056551,-0.458947518336538,0.0130924405652028,-0.00570696127201147,0.00167851802117985
8.16,4,0.15581733654795,-0.101484216844183,0.00808740501113926,0.0251065604622537,-0.0134688355154068,-0.00897244178594317,0.0690837326171656,-0.150079856766462,-0.0237739188818018,-0.103417055777662,-0.495101779229102,-0.054383983886227,-0.308999908444472,-0.464756207973469,0.00535091199479151,-0.00851466414380322,0.00167851802117985
8.19,4,0.129805393637908,-0.0888292082481358,0.00361135695465967,0.0233466597491379,-0.00300098676513972,-0.00889105909400718,0.0620034384187343,-0.134739219336528,-0.0242622150334178,-0.109703868729718,-0.356252733949807,0.00970488601336711,-0.333964049195837,-0.463708405814793,0.00425224565365561,-0.0101219723095391,0.00167851802117985
8.22,4,0.102013204341767,-0.0937732067832474,0.00697856583351136,0.02198349965921,-0.00704977568895535,-0.010549231442203,0.0720948922187974,-0.144545833714815,-0.0260119429100416,-0.114251126641641,-0.205786309396649,0.0100202439446191,-0.351186661376792,-0.45310831019013,0.00836207159642323,-0.00929797255368714,0.00167851802117985
8.25,4,0.0769371623889889,-0.0851568142745242,0.00884019491154719,0.0210069073559781,-0.000478123315123956,-0.00925728120771915,0.0742515335551012,-0.164443901893165,-0.0278837448245694,-0.0791344950712607,0.021454512161626,-0.0514948983224993,-0.356242561113315,-0.433077995137384,0.00919624418876715,-0.010386466058331,0.00167851802117985
8.28,4,0.0561947487818028,-0.0707113864558855,0.00909451582384716,0.0210577715384381,0.000152592547379986,-0.0101728364919991,0.0670491653187658,-0.181127353740043,-0.0230821660003459,-0.053997416099531,0.254097109897153,-0.0952380952380952,-0.347605822931608,-0.403749707530951,0.00889105909400718,-0.010986663411359,0.00155644398327586
8.31,4,0.0399182103946043,-0.0571408225755587,0.00804671366517126,0.0211289813938821,0.000152592547379986,-0.010518712932727,0.0384838404492325,-0.190160832544939,-0.0188095746737063,-0.0506505528936633,0.408917508468886,-0.0918708863592435,-0.327077038890754,-0.366893520920438,0.00767031871496729,-0.010986663411359,0.00141402427238787
8.34,4,0.0263476465142776,-0.0470391959390037,0.00709046703492335,0.0197861669769382,-0.00733461511073133,-0.010467848750267,-0.269020661030915,-0.208797468998281,-0.0801314330474766,-0.0557267983031709,0.311339660837631,0.0604571672719504,-0.302316354869228,-0.328562273018586,0.00661234371979939,-0.00849431847081922,0.00919624418876715
8.37,4,0.00366222113711966,-0.0769066438795129,0.00959298481195512,0.0123905148472549,-0.0297555467390973,-0.00043743196915596,-0.251604764956613,-0.166681925921405,-0.0577918841110467,-0.106733400474054,-0.0267545599739575,0.267209896135339,-0.297697887101861,-0.3012075156916,0.0136417737357707,0.00199387595243182,0.0726645710623493
8.4,4,-0.0156051311787266,-0.0662760297453739,0.0168258715577665,0.00147506129133986,-0.0357371745963927,0.00712098554439934,-0.0405387534206163,-0.11093478194525,-0.0417594937996562,-0.0227769809055859,-0.0136824650817387,-0.0834274320708843,-0.298694825078076,-0.282855718660034,0.0161341186763105,0.0119530828780989,0.0810469883317566
8.43,4,-0.0283516953032014,-0.0450656656595559,0.0122989593188269,-0.00456760358490758,-0.0178838465529344,0.0087079480371512,-0.0749229407635731,-0.143650624103519,-0.0299996948149052,-0.0499384543392234,0.0708944975127415,-0.228003784295175,-0.296385591194393,-0.267820266324859,0.0118310088401949,0.00911486149683116,0.0925626392406995
8.46,2,-0.0387991983804844,-0.0354523351746167,0.0117191076387829,-0.0128482924893948,-0.0310271513005971,0.011383404034547,-0.0680461032949817,-0.142307809686575,-0.00428276416313161,0.00725323241879533,0.0685954364655497,-0.297087516912341,-0.292102827031261,-0.253079826247953,0.011118910285755,0.0168665629037344,0.114902188177129
8.49,2,-0.0498672444837794,-0.0373444827621286,0.0144759463281147,-0.0250556962797937,-0.0420545060579241,0.0187892290007223,-0.0460320851262958,-0.147963906776126,0.000559506007059949,-0.0172022665079704,0.0670186468092898,-0.163762321848201,-0.288226976327809,-0.238115583768222,0.0204474013489181,0.0224921414838099,0.140029094312367
8.52,2,-0.0568559831537828,-0.0224005859553819,0.0243741162348298,-0.0388704082359284,-0.0457981098869798,0.021566413363038,-0.0680054119490137,-0.151829584643086,-0.00188197475101983,-0.0405489262571083,0.127770826339508,-0.0268054241564175,-0.282499669382814,-0.225430056662699,0.0196946114485102,0.0228278450880459,0.187200537125767
8.55,2,-0.0607216610207424,-0.0138655761385947,0.0114647867264829,-0.054099144464451,-0.0520950956755272,0.0250251777703177,-0.0531530706706951,-0.152643411562446,-0.0159204891099785,-0.0359609769992167,0.14951017792291,-0.0488296151615955,-0.273781548509171,-0.212775048066652,0.010701823989583,0.0281685842463454,0.238146102277698
8.58,2,-0.0621967223120823,-0.00450656656595559,0.0154423657948546,-0.0701518804488255,-0.0530411694692831,0.0310576698100731,-0.0561235389263588,-0.160212001912493,-0.00643940549943541,-0.0374665568000326,0.181249427777947,-0.076316619362977,-0.264015625476852,-0.201605273598437,0.0248013753674937,0.0366222113711966,0.286619668162074
8.61,2,-0.0586870937223426,0.0126244900865708,0.0353302611367128,-0.0831222469761244,-0.0370494705038606,0.0381888281909645,-0.0516474908698792,-0.161066520177821,-0.00810775068412325,-0.0266324859360536,0.240821558275094,-0.0750755333109531,-0.251258888515885,-0.192368338063702,0.0309559414451532,0.0372224087242246,0.347951699372336
8.64,2,-0.0571204769025747,0.00490330718914355,0.0289925840021973,-0.0913927630441196,-0.0283415224667094,0.032105471968749,-0.0356557919044567,-0.161432742291533,-0.0065614795373394,-0.0258491775261696,0.193456831568346,-0.0733258054343293,-0.237739188818018,-0.180384736676127,0.0314340647602771,0.0307524847153132,0.405072176274911
8.67,2,-0.0571611682485427,0.000305185094759972,0.0345266070538448,-0.101891130303863,-0.0350352488784448,0.0348317921486048,-0.0473748995432396,-0.156346324045534,-0.0075787631865393,-0.0266731772820215,0.190547400331634,-0.0491449730928475,-0.230302845342367,-0.172897529018016,0.0346995452742088,0.0377412233853165,0.45244707581815
8.7,2,-0.0573341064689067,0.000152592547379986,0.0347911008026368,-0.108737449262978,-0.0194402905362102,0.0342722861415449,-0.0395621611173844,-0.159276100955229,-0.00806705933815526,-0.0235094251330098,0.195237077954446,-0.0774152857041129,-0.219194107893104,-0.161646371857865,0.0348521378215888,0.0306100650044252,0.488245287433495
8.73,2,-0.0575477360352387,0.000152592547379986,0.0353506068096967,-0.112837102369254,-0.0129907122002828,0.0287891272723573,-0.0400504572690003,-0.15744499038667,-0.00627664011556342,-0.0225430056662699,0.191666412345754,-0.0715557318847214,-0.207810703858557,-0.150059511093478,0.0352488784447768,0.0281685842463454,0.520503351949624
8.76,2,-0.0590736615090386,-0.00447604805647959,0.0357982116153447,-0.116092410046693,-0.00861639250872321,0.0268054241564175,-0.0332550024923449,-0.161229285561693,-0.00456760358490758,-0.022268339080986,0.192266609698782,-0.0598671427554145,-0.196488336842962,-0.137241737113559,0.0373851741080966,0.0262662638223416,0.546810307117934
8.79,2,-0.0605792413098544,-0.00380464084800765,0.0407116916409802,-0.116580706198309,7.12098554439934e-05,0.0236314991709138,-0.0379345072786645,-0.158584348073773,-0.00525935646636352,-0.0227159438866339,0.196742657755262,-0.0381583096814885,-0.186122216457615,-0.125349691254412,0.0397045808282723,0.0211900184128341,0.581458988209683
8.82,2,-0.0607420066937264,1.01728364919991e-05,0.0373444827621286,-0.116529842015849,0.000152592547379986,0.021383302306182,-0.0332550024923449,-0.158787804803613,-0.00428276416313161,-0.0230821660003459,0.193955300556454,-0.0282296212652974,-0.175796787418236,-0.114830978321685,0.0372631000701926,0.0210577715384381,0.621021149327067
8.85,2,-0.0611997843358664,0.000152592547379986,0.0373037914161606,-0.114424064862005,0.0097659230323191,0.0201218705811742,-0.0281278929003774,-0.158218125960061,-0.00582903530991546,-0.0278023621326334,0.203202408927681,-0.022024191005178,-0.165023753573209,-0.10361033967101,0.0372325815607166,0.0168462172307505,0.678711305073194
8.88,2,-0.0616372163050223,0.000152592547379986,0.0376903592028565,-0.106652017782118,0.0313526820683411,0.010691651153091,-0.0229194006164739,-0.158136743268125,-0.00578834396394747,-0.0386262601601204,0.211106702881965,-0.0185552537614063,-0.148452202927742,-0.086581011383404,0.0376903592028565,0.00417086296171962,0.752596616514583
8.91,2,-0.0635598824020101,-0.00457777642139958,0.0417086296171962,-0.0947599719229713,0.0396740623187963,-0.00257372763247576,-0.0338246813358969,-0.157363607694734,-0.00131229590746788,-0.0210272530289621,0.206884975737785,-0.0169886369416384,-0.136112552262947,-0.0722983489486373,0.0417798394726402,-0.00359101128167567,0.828343557034008
8.94,2,-0.0645161290322581,-0.00305185094759972,0.0387483341980244,-0.0836410616372163,0.0386872971790724,-0.00270597450687175,-0.0252388073366497,-0.159316792301197,0.00153609831029186,0.00254320912299977,0.211483097832169,-0.0141707612333547,-0.125553147984252,-0.0608437350586464,0.0400402844325083,-0.00463881344035157,0.888698995941038
8.97,2,-0.0645771660512101,-0.000600197353027945,0.0408235928423922,-0.0694092633849096,0.0485040843938515,-0.00660217088330739,-0.0276802880947295,-0.160781680756045,-0.00114953052359589,0.0261441897844376,0.215511541083,-0.00664286222927539,-0.115685496587013,-0.0508336639505193,0.0401013214514603,-0.0132958972950428,0.912127038382112
9,2,-0.0645466475417341,0.000152592547379986,0.0396333709728284,-0.0581784518977426,0.0345164342173528,-0.00950142928352713,-0.0265002390616576,-0.159276100955229,-0.00273649301634775,0.0373343099256366,0.209916481012401,0.0021973326822718,-0.109276609597054,-0.0444451226335439,0.0396740623187963,-0.00838241726940723,0.916074098941008
9.03,2,-0.0645466475417341,0.000152592547379986,0.0396435438093204,-0.0482701091545356,0.0347504094566688,-0.00812809635710725,-0.0166122419914345,-0.157526373078606,-0.00615456607765943,0.0365611743522446,0.213771986042868,0.000946073793755913,-0.097486292102827,-0.032715842158269,0.0396130252998444,-0.0075889360230313,0.912391532130904
9.06,2,-0.0645161290322581,0.000152592547379986,0.0391654204941964,-0.0358592486342967,0.043834752444024,-0.00957263913897112,-0.0187281919817703,-0.158625039419741,-0.00493382569861955,0.0341298664306569,0.225094353058463,0.00165817234819585,-0.0859197770114241,-0.021210364085818,0.0392162846766564,-0.0139774773400067,0.90825118767866
9.09,2,-0.0643940549943541,0.000152592547379986,0.0392162846766564,-0.0227769809055859,0.043214209418012,-0.0136214280627867,-0.0198675496688742,-0.160008545182653,-0.00521866512039552,0.0294300159713533,0.236650695313374,0.00465915911333557,-0.075635039318013,-0.011007009084343,0.0392162846766564,-0.0163375754061505,0.908739483830276
9.12,2,-0.0643126723024181,0.000152592547379986,0.0391654204941964,-0.010803552354503,0.0394400870794804,-0.0153711559394106,-0.0136824650817387,-0.161798964405245,-0.0043234555090996,0.0344452243619088,0.251330098371329,0.00307219662058372,-0.0646178573971781,-0.000162765383871985,0.0392162846766564,-0.0168462172307505,0.910774051128676
9.15,2,-0.0642414624469741,0.000152592547379986,0.0391247291482284,0.00289925840021973,0.0474257637256996,-0.0198268583229062,-0.0098167872147791,-0.159764397106845,-0.00493382569861955,0.0457269000315358,0.269681895402895,0.00921658986175115,-0.0496943062634154,0.0146692302214627,0.0392162846766564,-0.0255338195949176,0.91221859391054
9.18,2,-0.0641804254280221,0.000152592547379986,0.0391654204941964,0.0174158960743024,0.0476699118015076,-0.0274564856919055,-0.011037527593819,-0.161392050945565,-0.00493382569861955,0.0496841334269234,0.276243374940235,0.0064800968454034,-0.0356049277219967,0.0286365347249774,0.0392162846766564,-0.0318104597104811,0.914344716737368
9.21,2,-0.0639769686981821,0.000152592547379986,0.0391145563117364,0.0310068056276131,0.0459710481073438,-0.0340891750846889,-0.00228888821069979,-0.159560940377005,-0.00534073915829951,0.0684835352641377,0.284432508316294,0.00174972787662384,-0.0206610309152501,0.04340749331136,0.0392162846766564,-0.0376293221839045,0.9150669881283
9.24,2,-0.0639362773522141,0.000152592547379986,0.0391349019847204,0.0461643320006917,0.0497553432823674,-0.0452792952258878,-0.00660217088330739,-0.160537532680237,-0.00525935646636352,0.0921353801080355,0.296182134464553,0.00139367859940387,-0.00384533219397565,0.0602028463596505,0.0392162846766564,-0.0505386516922514,0.916053753268024
9.27,2,-0.0639362773522141,0.000152592547379986,0.0391654204941964,0.0592567725658946,0.0441195918657999,-0.0550960824406669,-0.000986765139723909,-0.161025828831853,-0.00774152857041129,0.0961638233588672,0.315154474522131,-0.00492365286212755,0.0103050833663951,0.0744956816309092,0.0392162846766564,-0.0561235389263588,0.913836074912768
9.3,2,-0.0628274381745862,0.00404878892381563,0.0387686798710084,0.0732851140883613,0.0480157882422356,-0.0695516830957976,-0.00175990071311584,-0.164810124006877,-0.010956144901883,0.0934273303425194,0.367636137984354,-0.0157577237261066,0.0265714489171016,0.0896125166580198,0.0375682851649525,-0.0703960285246335,0.911384421318196
9.33,2,-0.0626850184636982,0.000406913459679963,0.0354625080111087,0.0882595294045839,0.0520849228390352,-0.0834376049073763,0.00365204830062766,-0.164281136509293,-0.0135603910438348,0.0822066916918444,0.437899919634592,-0.00192266609698782,0.0492670471307515,0.112196213670258,0.0377005320393485,-0.0844955799025442,0.906450595619577
9.36,2,-0.0617592903429263,0.00443535671051159,0.0362254707480087,0.105573697113966,0.0573442793053987,-0.10472935168513,0.00475071464176356,-0.167861974954477,-0.00953194779300312,0.101585945209103,0.507675405133213,0.0189113030386263,0.0754010640786971,0.137373983987955,0.0351573229163488,-0.10610268461155,0.899868770409253
9.39,2,-0.0606707968382824,0.00507624540950753,0.0363678904588967,0.122775963621937,0.0531123793247271,-0.119693594164861,-0.00273649301634775,-0.188166956592507,-0.0154321929583626,0.13240963977986,0.588295134332306,0.0442518387401959,0.107079276914782,0.167994221828873,0.0354319895016327,-0.122521642709637,0.881883195491399
9.42,2,-0.0512914415926593,0.0290434481846573,0.0266426587725456,0.1310871710359,0.0164698222805465,-0.116499323506373,-0.0157984150720745,-0.229834894863735,-0.0226752525406659,0.180720440280363,0.700949125644703,0.129449344360688,0.145613981546475,0.19713939837845,0.0244554989267658,-0.119266335032197,0.808587908566546
9.45,2,-0.0273649301634775,0.0713929665008494,0.0274157943459375,0.128635517441328,-0.0192571794793542,-0.116885891293069,-0.0313018178858811,-0.26263211971394,-0.0316273486536251,0.138004699850459,0.912432223476872,0.172327850174464,0.195491398866746,0.223090304269539,0.0392061118401644,-0.124220506403801,0.577857804091515
9.48,2,0.0457777642139958,0.227861364584287,0.0534684286019471,0.102023377178259,-0.118289742728965,-0.121779025645721,-0.0278430534786014,-0.284849594612466,-0.0209662160100101,0.203741569261757,0.937213253171382,0.148920153406374,0.249265012563453,0.203568631041393,0.0645771660512101,-0.136285490483311,0.299518824833928
9.51,2,0.184291105889055,0.459171320739362,0.0501622567420474,0.0396333709728284,-0.240557064526302,-0.123701691742709,-0.0850143945636362,-0.343282367422508,0.0194402905362102,0.159560940377005,1.19279559719637,0.128635517441328,0.313618376211839,0.12940865301472,0.0499181086662394,-0.134372997222816,0.201839248837753
9.54,2,0.341400392671489,0.542456333099358,0.0203456729839981,-0.0497858617918434,-0.325815607165746,-0.0964486627806431,-0.100151575263731,-0.293883073417361,0.0381990010274565,0.010640786970631,1.35286517939797,-0.022075055187638,0.392081464074628,0.0507726269315673,0.0123193049918109,-0.0920845159255755,0.165278074485509
9.57,2,0.486556596575823,0.503769035920286,-0.0123091321553189,-0.150181585131382,-0.346263008514664,-0.0350861130609048,-0.0280872015544094,-0.201188187302265,0.0232245857112339,-0.0766624958037049,1.27533799249245,-0.354299549343343,0.471816156498917,-0.0145268105105747,-0.0175684886216824,0.0745974099958291,0.0856349375896481
9.6,2,0.610329498173976,0.419029307941933,-0.0281889299193294,-0.221076082644124,-0.175033824681336,0.11332539852087,-0.0616575619780063,-0.0396435438093204,0.00589007232886746,-0.19123915321309,0.620797346924243,-0.731467635120701,0.530014954069643,-0.0800602231920326,-0.0296029541917173,0.173090812911364,0.0208543148085981
9.63,2,0.711345764539527,0.337880591245257,-0.0273751029999695,-0.185572883287047,0.198706015198218,0.0826441236610004,-0.0181585131382183,-0.0752484715313171,-0.0210475987019461,-0.335133925392417,0.122043519394513,-0.599576810001933,0.549424726096377,-0.161666717530849,-0.0301522873622852,0.0937833796197394,0.00560523290709148
9.66,2,0.769595426292713,0.200771101006094,-0.0603656117435224,-0.0934476760155034,0.339172541479741,0.0333465580207729,-0.0672322763756218,-0.00517797377442752,-0.0348012736391288,-0.345367798903368,-0.463464257738985,-0.394512771996216,0.53982156844793,-0.229519536932483,-0.0786970631021048,-0.011118910285755,0.00246182643106377
9.69,2,0.755617948952706,-0.0514847254860073,-0.103020315154475,0.00159713532924385,0.311593981749931,-0.0196030559200822,-0.251686147648549,0.120843124688457,-0.032726014994761,-0.28074994150619,-1.63819289732556,-0.140293588061159,0.477116204311248,-0.27825759656565,-0.105990783410138,-0.0850754315825882,0.00179041922259184
9.72,2,0.673034862310658,-0.279559719636626,-0.0538041322061831,0.0447197892188279,0.0907722200181076,-0.043529567349264,-0.0907518743451236,-0.10808638772749,-0.0457879370504878,-0.188350067649363,-2.34809411908322,-0.00781273842585528,0.351827550075788,-0.320963164159062,-0.0560014648884548,-0.0482294178085676,0.00167851802117985
9.75,2,0.548712627541938,-0.418907233904029,-0.0228583635975219,0.0349131748405408,-0.0514236884670553,-0.0141707612333547,-0.0397249265012563,-0.174209824925484,-0.0423698639891761,0.00102745648569191,-2.81099887081515,0.15037486902473,0.196345917132074,-0.352132735170548,-0.0139164403210547,-0.00127160456149988,0.00167851802117985
9.78,2,0.405316324350719,-0.479089734590696,0.0138452304656107,0.0238146102277698,-0.0256660664693136,0.00232957955666779,0.139927365947447,-0.392518896043784,-0.0360627053641367,-0.00102745648569191,-2.62772504857529,0.452915026296782,0.0283110039572334,-0.376812036500137,0.0163274025696585,4.06913459679963e-05,0.00167851802117985
9.81,2,0.263456119469792,-0.472843612984608,0.0347707551296528,0.0227871537420779,-0.000162765383871985,-0.00384533219397565,0.130975269834488,-0.353658660644347,-0.0199896237067782,0.0155440941597746,-2.31243832717877,0.431643625192012,-0.119998779259621,-0.383342997528001,0.0379039887691885,-0.00749738049460331,0.00140385143589587
9.84,2,0.143416648864203,-0.405499435407575,0.0416882839442122,0.0227362895596179,0.000152592547379986,-0.00560523290709148,0.115309101636809,-0.294249295531073,0.00239061657561978,0.126570431633452,-1.76235236671041,0.877793715221615,-0.239946694336782,-0.383271787672557,0.0453098137353638,-0.0076296273689993,0.00149540696432386
9.87,2,0.0549333170567949,-0.30283516953032,0.0402335683258563,0.0227362895596179,0.000152592547379986,-0.00635802280749942,0.0990325632496109,-0.23805454674927,0.0162663655507065,-0.176183355204932,-1.19850255846838,0.661407310200303,-0.32705669321777,-0.381908627582629,0.0422477899512721,-0.0076296273689993,0.00162765383871985
9.9,2,-0.00127160456149988,-0.19307026378165,0.0333974222032329,0.0225735241757459,0.000152592547379986,-0.00698873867000336,0.106519770907722,-0.19642729982401,0.0086977752006592,-0.139428896959339,-0.749005605232907,0.557491785434533,-0.384980824203213,-0.383536281421349,0.0331329284544409,-0.0076296273689993,0.00167851802117985
9.93,2,-0.0308542130802332,-0.102501500493383,0.0241706595049898,0.0223598946094139,0.000152592547379986,-0.00734478794722332,0.0960214036479792,-0.1726635537787,0.00157678965625985,-0.161493779310485,-0.39254941455326,0.564775536362804,-0.417981505783258,-0.386872971790724,0.022064882351146,-0.0076296273689993,0.00167851802117985
9.96,2,-0.0479750968962676,-0.0582496617531866,0.0177515996785384,0.022146265043082,0.000152592547379986,-0.00746686198512731,0.0838953825495163,-0.160415458642333,0.00967436750389111,-0.208126061789809,-0.139449242632323,0.554653564053265,-0.433047476627908,-0.384858750165309,0.0166325876644185,-0.0076296273689993,0.00167851802117985
9.99,2,-0.0581275877152827,-0.0337026072979929,0.0145675018565427,0.021851252784814,0.000152592547379986,-0.00771101006093529,0.0842616046632283,-0.157404299040702,0.00902330596840317,-0.28273364462213,0.0733359782708213,0.547329121779026,-0.43478703166804,-0.376445814386425,0.0140995513779107,-0.0076296273689993,0.00167851802117985
10.02,2,-0.0598773155919065,-0.00523901079337952,0.0118310088401949,0.021607104709006,0.000152592547379986,-0.0075889360230313,0.0467441836807357,-0.159154026917325,-0.0233263140761539,-0.331461531418806,0.268389945168411,0.567379782504756,-0.399975585192419,-0.339884640034181,0.00994903408917508,-0.00744651631214331,0.00167851802117985
10.05,2,-0.0615660064495783,-0.0054221218502355,0.00906399731437117,0.0198777225053662,-0.00743634347565132,-0.00450656656595559,-0.176203700877916,-0.178401033560188,-0.169489628793196,-0.291268654438917,0.207027395448673,0.916704814803512,-0.345164342173528,-0.283384706157618,0.00929797255368714,-0.00479140598773156,0.0122582679728589
10.08,2,-0.0609963276060264,0.00348928291675568,0.00921658986175115,0.011088391776279,-0.0406811731315043,0.00172938220363984,-0.0719524725079094,-0.181290119123915,-0.064668721579638,-0.347911008026368,0.170110171819208,0.647490869879248,-0.333028148238573,-0.271838536739199,0.00841293577888323,0.00387585070345164,0.134200059002452
10.11,2,-0.0601265500859605,0.00338246813358969,0.0130822677287108,-0.0160629088208665,-0.104800561540574,0.0225735241757459,-0.0693075350199896,-0.137953835667999,-0.0581987975707266,-0.115181941180659,0.118249051382997,-0.202475051118503,-0.329442223375144,-0.269117302977589,0.0224717958108259,0.0475274920906196,0.243334248888618
10.14,2,-0.054719687490463,0.0200201422162542,0.0312865586311431,-0.0450148014770959,-0.0609403770053204,0.0560065513067008,-0.0447706534012879,-0.184952340261035,-0.00149540696432386,-0.0957162185532192,0.219855342265084,-0.32525101474044,-0.318821782077497,-0.263888465020702,0.0261085848567156,0.054404329559211,0.327865433718884
10.17,2,-0.0483108005005036,0.022166610716066,0.0176702169866024,-0.0589515874711346,-0.0482294178085676,0.0444044312875759,-0.043346456292408,-0.171280048015788,0.00440483820103559,-0.150461338134912,0.192531103447574,-0.0142216254158147,-0.305678477329834,-0.25711335591703,0.0169784641051464,0.0456556901760918,0.38952299569689
10.2,2,-0.0479140598773156,0.00256355479598376,0.0246335235653757,-0.0747296568702251,-0.0512558366649373,0.0536413668223111,-0.0458082827234718,-0.153091016368094,-0.0239773756116418,-0.156000447604806,0.124317148350475,0.0493992940051475,-0.293435468611713,-0.245333211259295,0.0273700165817235,0.0553656626077049,0.446109398683635
10.23,2,-0.0479394919685456,0.000193283893347982,0.0288959420555233,-0.0875881221961119,-0.0398673462121443,0.0536617124952951,-0.0562863043102308,-0.155858027893918,-0.0168970814132104,-0.138798181096835,0.111301004058962,-0.0199845372885322,-0.284325693533128,-0.236208176925972,0.0292265592415133,0.0531632435071871,0.51674448886583
10.26,2,-0.0481480351166316,0.000152592547379986,0.0292062135685293,-0.101026439202043,-0.0463169245480717,0.0596738588620665,-0.0537227495142471,-0.146946623126926,-0.0159408347829625,-0.13393556525366,0.0923846146020895,0.0191656239509262,-0.282118188014364,-0.23373109124017,0.0294503616443373,0.0606555375835444,0.588091677602466
10.29,2,-0.0485091708120975,0.000152592547379986,0.0293842382071393,-0.115604113895077,-0.0489364299447615,0.0675730663981038,-0.0526647745190792,-0.155064546647542,-0.0145573290200507,-0.115863521225623,0.0670949430829798,-0.00665303506576739,-0.279371522161524,-0.230618203273619,0.0295571764275033,0.0675527207251198,0.685115105644907
10.32,2,-0.0511744539730013,-0.00707012136193935,0.032400484227017,-0.13190099795526,-0.0564897610400708,0.076230150252795,-0.0534175644194871,-0.152399263486638,-0.0117699718212429,-0.125298827071952,0.0426648762474441,-0.0292570777509893,-0.277082633950824,-0.225669118320261,0.0343434959969888,0.0766268908759829,0.781980854721722
10.35,2,-0.0519882808923612,-0.00130720948922188,0.0340230516474909,-0.149169387900428,-0.0565202795495468,0.0836919258196763,-0.0505488245287433,-0.156977039908038,-0.0075787631865393,-0.109673350220242,0.0482599363180436,-0.0248166346222317,-0.276238288521989,-0.224051637318033,0.032822656941435,0.0847041230506302,0.866349274168116
10.38,2,-0.054099144464451,-0.00595619576606545,0.033138014872687,-0.163630074973805,-0.043895789462976,0.0828780989003164,-0.0402335683258563,-0.164443901893165,-0.00727357809177933,-0.0844904934842982,0.0378582110049745,-0.0315052746157211,-0.274142684204637,-0.219789218827886,0.0353506068096967,0.0840123701691743,0.920601011179947
10.41,2,-0.0553504033529669,-0.00243130792158778,0.0372071494694866,-0.173233232622252,-0.0270292265592415,0.0769066438795129,-0.0450148014770959,-0.159560940377005,-0.00625629444257942,-0.0624612160608743,0.0385601367229225,-0.0305185094759972,-0.270231228573463,-0.214657022817672,0.0357371745963927,0.0785037792087568,0.952915026296782
10.44,2,-0.0582903530991546,-0.00793481246375927,0.0379802850428785,-0.175796787418236,-0.00197353027944782,0.0666625975320699,-0.0419629505294961,-0.157729829808445,-0.00625629444257942,-0.0368663594470046,0.0242978199611398,-0.021739351583402,-0.263308613340658,-0.204830062766401,0.0388144576352224,0.0660522273425499,0.960371715445418
10.47,2,-0.0611590929898984,-0.00875372580136519,0.0415102593056022,-0.176178268786686,0.000152592547379986,0.0634530676188442,-0.0584429456465346,-0.149489832249926,-0.00615456607765943,-0.0223293760999379,0.0549485763115329,-0.0119378236233609,-0.262906786299224,-0.201528977324747,0.0422121850235501,0.0636310922574541,0.962446974089785
10.5,2,-0.0614591916664123,-0.000503555406353954,0.0387076428520564,-0.176422416862494,0.000152592547379986,0.0639159316792301,-0.0503046764529354,-0.152480646178574,-0.00680562761314737,-0.010757774590289,0.0816980498672445,-0.0022125919370098,-0.263883378602456,-0.202185125278481,0.0380870998260445,0.0640736106448561,0.9596952218187
10.53,2,-0.0616270434685303,0.000152592547379986,0.0376801863663645,-0.176549577318644,0.000152592547379986,0.0639261045157221,-0.0505284788557594,-0.15408795434431,-0.00792463962726727,-0.0120039470605589,0.0997904395682648,0.00725323241879533,-0.261116367076632,-0.199290953296508,0.0376903592028565,0.0640888698995941,0.955732902005066
10.56,2,-0.0617999816888943,0.000152592547379986,0.0376598406933805,-0.17642750328074,0.000152592547379986,0.0641651661732841,-0.0488601336710715,-0.153660695211646,-0.00829086174097924,-0.0114088361257769,0.104342783898434,0.0144912055828527,-0.256950590533158,-0.194998016296884,0.0376903592028565,0.0640888698995941,0.955376852727846
10.59,2,-0.0618457594531083,0.000152592547379986,0.0376598406933805,-0.174336985381634,0.00792463962726727,0.0587277850683106,-0.0463983072400077,-0.154759361552782,-0.00792463962726727,-0.00383515935748365,0.100014241971089,0.0164647358623005,-0.252057456180507,-0.189998067161067,0.0376903592028565,0.0590380565813166,0.950722780032757
10.62,2,-0.0620492161829483,0.000152592547379986,0.0376191493474125,-0.172378714356924,0.00857061474450921,0.0595212663146865,-0.0400301115960163,-0.156549780775374,-0.00395723339538764,0.00833663950519323,0.104032512385428,0.0197759941404462,-0.243695384584084,-0.181447798089541,0.0376903592028565,0.0592160812199265,0.942167424542985
10.65,2,-0.0622018087303283,0.000152592547379986,0.0378124332407605,-0.167897579882199,0.0141198970508947,0.0537430951872311,-0.0497756889553514,-0.152623065889462,-0.00487278867966755,0.0237128818628498,0.10956144901883,0.0636514379304381,-0.239610990732546,-0.177200638854132,0.0380108035523545,0.0527970213934751,0.93582974740847
