time,Mode,Knee_Angle,Knee_Velocity,Knee_Current,Ankle_Angle,Ankle_Velocity,Ankle_Current,Acc_X,Acc_Y,Acc_Z,Gyro_X,Gyro_Z,Gyro_Y,Shank_Angle,Thigh_Angle,Knee_Ref_Torque,Ankle_Ref_Torque,Filtered_Vertical_Load
0,2,0.590065207881914,0.488224941760511,-0.0206101667327901,-0.12762840662862,-0.305714082257556,-0.0303659169286172,-0.0136010823898027,-0.146661783705151,-0.00709046703492335,0.0445265053254799,1.06098615476953,-0.0829391359192684,0.596260465305541,0.00631733146153142,-0.0209763888465021,-0.0117496261482589,0.0550452182582069
0.03,2,0.718832972197638,0.441999572740867,-0.0256558936328216,-0.214880825220496,-0.269875179296243,0.0611489201534064,-0.00859604683573921,-0.119113742484817,-0.00155644398327586,-0.0207220679342021,0.565406252225308,-0.123538926358837,0.643747266050193,-0.0748313852351451,-0.033143101290933,0.122908210496333,0.0126143172500788
0.06,2,0.809004994862718,0.316222622353791,-0.0344757428713848,-0.220323292743716,0.0887681712291838,0.10711996826075,-0.033092237108473,-0.043956826481928,-0.0177109083325704,-0.0855332092247281,0.0740277311522772,-0.137007761874243,0.663981037832779,-0.144800154627115,-0.0367544582455926,0.130659911903236,0.00386567786695964
0.09,2,0.859106214585813,0.178940193894264,-0.0268359426658935,-0.138625242876471,0.328775902584918,0.0472731711783197,-0.0452589495529038,-0.0340281380657369,-0.00595110934781945,-0.104892117069002,-0.549597664316741,-0.148584449802138,0.646849981180252,-0.212001912493261,-0.0269376710308135,0.0471409243039237,0.00207525864436781
0.12,2,0.872432630390332,0.0553707490259509,-0.0367442854091006,-0.0316171758171331,0.372641173538418,-0.00522883795688752,-0.032237718843145,-0.0442823572496719,-0.00586972665588346,-0.097821995707063,-1.02222764773502,-0.0491042817468795,0.598966439812413,-0.273252561011587,-0.0636819564399141,-0.0358897671437727,0.00170903653065584
0.15,2,0.819025238807337,-0.17500330617186,-0.113976460056358,0.0396638894823044,0.196915595975626,-0.0522171697134312,-0.178848638365836,0.0501622567420474,-0.0160425631478825,-0.0880764183477279,-1.81247393210649,0.0236823633533738,0.516179896440525,-0.302591021454512,-0.122185939105401,-0.0743329162470372,0.00167851802117985
0.18,2,0.689107943968017,-0.436435031179744,-0.054851934364859,0.0471917884863837,-0.00672424492121138,-0.0314951017792291,-0.138686279895423,-0.0768354340240689,0.000274666585283975,0.0490228990549435,-2.77951394187241,-0.0747398297067171,0.355937376018555,-0.332926419873653,-0.054740033163447,-0.0201829076001261,0.00167851802117985
0.21,2,0.527899004079307,-0.543504135258034,-0.0118310088401949,0.0293486332794173,-0.0590634886725466,0.00021362956633198,-0.0139673045035147,-0.28253018789229,0.00983713288776309,-0.0851873327840002,-3.18275500757876,0.0184331797235023,0.150212103640858,-0.377463098035625,-0.00781273842585528,0.00511693675547553,0.00167851802117985
0.24,2,0.354289376506851,-0.580767235328226,0.0256965849787896,0.021902116967274,-0.011108737449263,0.000895209611295918,0.114902188177129,-0.423037405519781,-5.08641824599953e-05,-0.143498031556139,-2.81176183355205,0.0558386995045829,-0.0311187068290251,-0.385265663624989,0.0286975717439294,-0.0032553076774397,0.00167851802117985
0.27,2,0.19530828780989,-0.531439151178523,0.0467950478631957,0.021403647979166,0.000152592547379986,-0.0043438011820836,0.13012075156916,-0.402976571957559,-0.0116478977833389,-0.0309661142816452,-2.32261116367077,0.261218095441552,-0.186152734967091,-0.381359294412061,0.0514542069765313,-0.00717184972685934,0.00167851802117985
0.3,2,0.0747601753797011,-0.408520767845698,0.0496536149174474,0.0210475987019461,0.000152592547379986,-0.0054526403597115,0.128126875616728,-0.289813938820561,0.00458794925789158,0.0291044852036093,-1.74109113844213,0.431501205481124,-0.307687612537004,-0.382346059551785,0.054180527156387,-0.00717184972685934,0.00167851802117985
0.33,2,-0.00339772738832769,-0.267626982431511,0.043733024079104,0.0206712037517421,0.000152592547379986,-0.00606301054923144,0.114047669911802,-0.221289712210456,0.00906399731437117,-0.00379446801151565,-1.18553219194108,0.45824559261859,-0.39341410565508,-0.38985361288288,0.0457879370504878,-0.00717184972685934,0.00167851802117985
0.36,2,-0.0467645293537197,-0.149021881771294,0.0343841873429568,0.0202541174555701,0.000152592547379986,-0.00674459059419538,0.109286782433546,-0.186335846023947,0.010610268461155,0.000661234371979939,-0.69711396628722,0.344757428713848,-0.448520360932239,-0.401491337829727,0.0336517431155329,-0.00692770165105136,0.00167851802117985
0.39,2,-0.0622984506770023,-0.0527665028839992,0.0238553015737378,0.0198166854864142,0.000152592547379986,-0.00676493626717938,0.128533789076408,-0.173599454735964,0.000966419466739911,0.032939644561093,-0.156895657216102,0.160232347585477,-0.471744946643473,-0.40924303923663,0.02157658619953,-0.0065614795373394,0.00167851802117985
0.42,2,-0.0565202795495468,0.0170852788883124,0.0123650827560249,0.0193945127719962,0.000152592547379986,-0.00669881282998138,0.098137353638315,-0.159296446628213,0.0248522395499537,0.0721050650552894,0.0900804671366517,-0.0341146071759189,-0.473072501805678,-0.416353851944538,0.00743125705740532,-0.0065614795373394,0.00167851802117985
0.45,2,-0.0587633899960326,-0.00352997426272368,0.00854518265327921,0.0190130314035463,0.000152592547379986,-0.00665303506576739,0.0797448652607807,-0.148553931292662,0.0260322885830256,0.0527461572110152,0.238603879919838,-0.209234900967437,-0.437086092715232,-0.378098900316375,0.0102542191839351,-0.00642414624469741,0.00167851802117985
0.48,2,-0.0596687724438205,-0.0011240984323659,0.010574663533433,0.0186925870540483,0.000152592547379986,-0.0065207881913714,0.0710979542425815,-0.152541683197526,0.0177719453515224,0.0303659169286172,0.422752566098005,-0.30283516953032,-0.373811049734998,-0.313928647724845,0.010513626514481,-0.00610370189519944,0.00167851802117985
0.51,2,-0.0600909451582385,0.000137333292641987,0.010442416659037,0.0176549577318644,-0.0022176783552558,-0.00447604805647959,-0.142694377473271,-0.171300393688772,0.0336212246060569,-0.0530716879787591,0.370626951913002,-0.250679036835841,-0.315510523799351,-0.255200862656535,0.010376293221839,-0.00474562822351756,0.00226854253771579
0.54,2,-0.0607674387849564,0.000152592547379986,0.0103101697846411,0.0165715506454665,-0.00896735536769718,-0.00312306080304371,-0.253578295236061,-0.147150079856766,-0.0458082827234718,-0.032603940956857,0.169606616412854,0.24047059541612,-0.302992848495946,-0.24202195298115,0.010376293221839,-0.00503555406353954,0.0671458072654398
0.57,2,-0.0612201300088504,0.000152592547379986,0.0103203426211331,-0.00115970336008789,-0.0711437320067955,0.00693787448754336,-0.0227159438866339,-0.155064546647542,0.02178004292937,-0.0308135217342652,0.243263039033174,0.346196885077466,-0.288928902045757,-0.227515488143559,0.010376293221839,0.0160730816573585,0.155110324411756
0.6,2,-0.0612455621000804,0.000645975117241941,0.0164545630258085,-0.0353709524826807,-0.117221594897305,0.0418103579821162,-0.0599281797743665,-0.147597684662414,-0.022166610716066,0.0485091708120975,0.205181025625375,0.186508784244311,-0.27891883093763,-0.21746981210771,0.0258542639444156,0.0628274381745862,0.253639332255013
0.63,2,-0.0565406252225308,0.0178685872981964,0.0318358918017111,-0.0569322794274728,-0.0483565782647176,0.0529140090131331,-0.0520340586565752,-0.187678660440891,-0.0133569343139948,-0.00723797316405733,0.293959369691051,0.124937691376487,-0.262901699880978,-0.206132185837377,0.0271665598518835,0.0504521825820694,0.356212042603839
0.66,2,-0.0528478855759351,0.0141911069063387,0.0242215236874498,-0.0719473860896634,-0.0514847254860073,0.0493179113132115,-0.0603147475610625,-0.150669881282998,0.00397757906837163,0.0493738619139175,0.278552608823918,0.0383414207383445,-0.245145013784193,-0.19207841222368,0.0245114495274717,0.0513067008473973,0.458738975188452
0.69,2,-0.0521307006032492,0.00318918424024171,0.0271106092511775,-0.0898566647338277,-0.0525325276446832,0.0605385499638864,-0.0473342081972716,-0.163060396130253,-0.00833155308694723,0.0320698670410271,0.276980905585905,0.114597003082369,-0.228995635853145,-0.176646219265318,0.0295317443362733,0.0615253151036103,0.552232428968169
0.72,2,-0.0502538122704754,0.00715150405387534,0.0292163864050213,-0.103452660705384,-0.0400962350332143,0.0593228960030925,-0.0595619576606545,-0.159662668741925,-0.0086977752006592,0.0363322855311747,0.303755811232846,0.0599892167933185,-0.211828974272897,-0.161361532436089,0.0277006337677135,0.0591194392732526,0.653665781629892
0.75,2,-0.0472172205776137,0.0097760958688111,0.0241401409955138,-0.117023224585711,-0.0442976165044099,0.0644703512680441,-0.0440992461928159,-0.155695262510046,-0.010732342499059,0.0293791517888933,0.287733593757948,0.0352743105360067,-0.197159744051434,-0.149723807489242,0.0239417706839198,0.065701264483576,0.740765607674388
0.78,2,-0.0454776655374818,0.00729392376476333,0.0255999430321156,-0.12737408571632,-0.0273547573269855,0.0621305988748843,-0.0444044312875759,-0.160578224026205,-0.00778221991637928,0.0288755963825393,0.269163080741803,0.0129042430901008,-0.180633971170181,-0.13495284890286,0.0245724865464237,0.0623035370952483,0.811446475620797
0.81,2,-0.0445214189072339,0.00277209794406974,0.0238196966460158,-0.13482568844671,-0.0224667093925799,0.0605029450361644,-0.0440382091738639,-0.156916002889086,-0.00814844203009125,0.0293486332794173,0.25711335591703,0.0144657734916227,-0.171066418449456,-0.126336456394136,0.0252794986826177,0.0607369202754804,0.873124383271788
0.84,2,-0.0422223578600421,0.00753807184057131,0.0244554989267658,-0.140695415102593,-0.0172073529262164,0.0595772169153925,-0.0362051250750247,-0.162592445651621,-0.011159601631723,0.0316120893988871,0.252255826492101,0.00695313374228136,-0.162602618488113,-0.120161544643493,0.0225328328297779,0.0607826980396944,0.925631478825241
0.87,2,-0.0418357900733462,0.00162256742047385,0.0229753512171799,-0.142363760287281,-0.0011240984323659,0.0536922310047711,-0.033051545762505,-0.161860001424197,-0.00827051606799524,0.0334482863856929,0.216666158024842,-0.00053916033407595,-0.151259905799534,-0.109144362722658,0.0244046347443058,0.0530208237962991,0.98259427676219
0.9,2,-0.0420951974038921,0.000167851802117985,0.0257220170700196,-0.141336303801589,0.00675984984893338,0.0504776146732994,-0.0340077923927529,-0.162104149500005,-0.00853500981678721,0.0288043865270953,0.181407106743573,0.00891140476699118,-0.144805241045361,-0.102496414075137,0.0255287331766717,0.0483565782647176,1.0207220679342
0.93,2,-0.0450046286406039,-0.0076143681142613,0.0294554480625833,-0.138660847804193,0.00933357748140914,0.0453657643360698,-0.0291858678955453,-0.159805088452813,-0.0101016266365551,0.0232093264564959,0.161280149744153,0.0137485885189367,-0.138879563788771,-0.0936460463270974,0.0309355957721692,0.0460931221452478,1.03785312458673
0.96,2,-0.0476648253832616,-0.00787886186305328,0.0311797438479771,-0.131204158655558,0.0282601397747734,0.0381227047537665,-0.032746360667745,-0.158258817306029,-0.011118910285755,0.0131585640024008,0.164423556220181,0.0166732790103865,-0.134779910682496,-0.086886196478164,0.032252978097883,0.0332346568193609,1.04306670328888
0.99,2,-0.0511185033722953,-0.00973540452284311,0.0366883348083946,-0.121824803409935,0.0303913490198472,0.0302845342366812,-0.0410067038992482,-0.15530869472335,-0.0125227617216508,0.00490330718914355,0.17561367636138,0.0118157495854569,-0.134144108401746,-0.0827865433718884,0.0367595446638386,0.0280515966266874,1.03817356893623
1.02,2,-0.0514694662312693,-0.000579851680043947,0.032919298888109,-0.113050731935586,0.0284737693411054,0.0274615721101515,-0.0331125827814569,-0.155735953856014,-0.0118920458591469,-0.00838750368765323,0.195176040935494,0.00272123376160975,-0.133828750470494,-0.0820897040721865,0.032120731223487,0.0253761406292917,1.02843307799514
1.05,2,-0.054399243140965,-0.0076143681142613,0.0357371745963927,-0.104973499760938,0.0272275968708355,0.0251726838994517,-0.0296741640471613,-0.15652943510239,-0.0116478977833389,-0.0225175735750399,0.189357178462071,-0.00716676330861334,-0.129016998809778,-0.0744295581937112,0.0367900631733146,0.0239875484481338,1.01922666096988
1.08,2,-0.0568305510625528,-0.00778730633462528,0.0372834457431766,-0.0944700460829493,0.0383261614836065,0.0210323394472081,-0.0260526342560096,-0.160395112969349,-0.0102237006744591,-0.0284381644133834,0.212174850713624,-0.00815861486658325,-0.121072013509527,-0.0640430921353801,0.0383058158106225,0.0150914029358806,1.0209763888465
1.11,2,-0.0576036866359447,-0.00165308592994985,0.0377310505488245,-0.0816573585212765,0.0422274442782881,0.0134230577511928,-0.0339060640278329,-0.161147902869757,-0.0115461694184189,-0.0320698670410271,0.244748273161005,-0.0134637490971608,-0.114490188299203,-0.0566932177699108,0.0365408286792606,0.00622577593310343,1.02325001780246
1.14,2,-0.0576799829096347,0.000127160456149988,0.0353506068096967,-0.0723237810398673,0.0260322885830256,0.010472935168513,-0.0264392020427056,-0.158197780287077,-0.00969471317687511,-0.0387991983804844,0.256970936206142,-0.0162867112236905,-0.10643330179754,-0.0485549485763115,0.0352488784447768,0.010956144901883,1.02510656046225
1.17,2,-0.0562049216182948,0.00570696127201147,0.0347046316924548,-0.0660980051067639,0.0149795017344686,0.0123854284290089,-0.0235908078249458,-0.159906816817733,-0.00863673818170721,-0.0463270973845637,0.268206834111555,-0.0192368338063702,-0.0962401196325571,-0.0397961363567003,0.032395397808771,0.0167037975198625,1.02662739951781
1.2,2,-0.0552995391705069,0.00305185094759972,0.0300505589973652,-0.0526342560096032,0.0459863073620818,0.010625527715893,-0.0128889838353628,-0.160435804315317,-0.00822982472202724,-0.0489669484542375,0.307606229845068,-0.0149591560614846,-0.0777713349813328,-0.02226325266274,0.0316273486536251,-0.00128686381623788,1.02665283160904
1.23,2,-0.0509760836614073,0.0145166376740827,0.0299691763054292,-0.0275582140568255,0.075665557827489,-0.0102237006744591,-0.0316273486536251,-0.163670766319773,-0.00953194779300312,-0.0568152918078148,0.423983479313537,-0.0133264158045188,-0.0559811192154709,-0.00484227017019155,0.0265917945900856,-0.0301828058717612,1.03129164504939
1.26,2,-0.0378734702597125,0.0409049755343282,0.0124617247026989,-0.010355947548855,0.0452792952258878,-0.021759697256386,-0.0363068534399447,-0.167048148035117,-0.00814844203009125,-0.0775475325785089,0.559790846481725,-0.0368256681010366,-0.0266833501185135,0.011251157160151,0.00448622089297159,-0.0204982655313781,1.03040660827459
1.29,2,-0.0242520421969258,0.0351674957528408,-0.000488296151615955,0.0128788109988708,0.0862147892696921,-0.0302641885636972,0.0227362895596179,-0.152399263486638,-0.00704977568895535,-0.0889105909400718,0.684265673797825,-0.0147099215674306,0.0118411816766869,0.0362661620939767,-0.00165817234819585,-0.0449334187851599,1.02737510299997
1.32,2,0.00694804732403536,0.0872219000824,-0.0196539201025422,0.0459303567613758,0.0987172053183589,-0.0720643737093214,-0.0181585131382183,-0.175023651844844,-0.0043234555090996,-0.0901516769920957,0.655557929217404,-0.0415051728873562,0.0506200343841873,0.043804233934548,-0.0388907539089124,-0.0754315825881731,1.00001017283649
1.35,2,0.0402539139988403,0.0932747377951394,-0.0724712871690013,0.0732240770694093,0.0842921231727043,-0.0814945931374045,0.0274157943459375,-0.153253781751966,0.000966419466739911,-0.12661112297942,0.670573035879594,-0.0513931699575793,0.0923083183283995,0.0521357870214952,-0.0724305958230333,-0.0854925178787601,0.945025991597237
1.38,2,0.0663065482548499,0.0766675822219509,-0.076031779941201,0.0961078727581612,0.0666931160415459,-0.0972065390992971,-0.00355031993570767,-0.185501673431603,-0.00320444349497971,-0.148436943673004,0.633309935809402,-0.113971373638112,0.129337443159276,0.0630970183416242,-0.0768150883510849,-0.101555426699627,0.85262611774041
1.41,2,0.0944903917559333,0.0822168645283364,-0.0940020956043173,0.109724214402702,0.0260322885830256,-0.0989155756299529,0.0043844925280516,-0.191076387829218,0.0259102145451216,-0.13126519567451,0.57073173212887,-0.16851812290821,0.165578173162023,0.0711793369345175,-0.0960214036479792,-0.102735475732699,0.708039592679627
1.44,2,0.121585741752373,0.0796736554053367,-0.111611275571968,0.111158584348074,-0.00669881282998138,-0.0910112816756696,0.0402132226528723,-0.164281136509293,0.011098564612771,-0.0931170588295134,0.451948606830042,-0.267733797214677,0.196193324584694,0.0746787926877651,-0.112669250567136,-0.0909248125654876,0.528188929919329
1.47,2,0.143253883480331,0.0628121789198482,-0.118483026622313,0.106372264778588,-0.0278583127333394,-0.0806400748720766,0.0386262601601204,-0.158157088941109,-0.0127872554704428,-0.10638243761508,0.309488204596088,-0.216772972808008,0.21914833012889,0.075970742922249,-0.119647816400647,-0.0828221482996104,0.34369945371868
1.5,2,0.154133732108524,0.0296182134464553,-0.108808659118422,0.0915402691732536,-0.0560167241431928,-0.0553656626077049,0.0412101606290882,-0.160557878353221,0.00281787570828374,-0.0822931608020264,0.155832595802688,-0.148609881893368,0.232591733553067,0.0785495569729708,-0.109556362600584,-0.0521612191127252,0.211783196508683
1.53,1,0.156534521520636,0.00130720948922188,-0.0987629830825729,0.0737428917305012,-0.0661183507797479,-0.0407371237322103,0.043244727927488,-0.162856939400413,0.00456760358490758,-0.0621204260383923,0.0135756502985728,-0.134688355154068,0.232815535955891,0.076352224290699,-0.097588020467747,-0.0340077923927529,0.10457675913775
1.56,1,0.156544694357128,-0.00511693675547553,-0.0922472813094475,0.0490585039826655,-0.0812351858068585,-0.0120649840795109,0.0252794986826177,-0.155593534145126,0.00243130792158778,-0.0446333201086459,-0.0613218583737704,-0.145034129866431,0.223410748619037,0.0669372641173538,-0.0928678243354595,0.000645975117241941,0.0394960376801864
1.59,1,0.148533585619678,-0.0302794478184352,-0.0780053102206488,0.0347097181107008,-0.0295673492639953,0.00300098676513972,-0.124749493901385,-0.12940865301472,-0.0152897732474746,-0.0396231981363364,-0.3886837366863,-0.0942157251706493,0.185628833887753,0.0371715445417646,-0.0783562730796228,-0.00406404817855363,0.0120242927335429
1.62,1,0.126529740287484,-0.0747652617979471,-0.0486210720135095,0.0313730277413251,-0.000269580167037975,-0.00894700969471318,-0.146519363994263,-0.150812300993886,-0.021617277545498,-0.0394706055889564,-0.78741314940845,0.184377574999237,0.147455264951526,0.0210018209377321,-0.043473616748558,-0.0268868068483535,0.00531530706706951
1.65,1,0.0970997243161311,-0.097938983326721,-0.0233364869126459,0.0265460168258716,-0.0128279468164108,-0.0172378714356924,-0.0828577532273324,-0.172378714356924,-0.0118513545131789,0.0281024608091474,-0.955280210781172,0.436806339711702,0.0938545894751834,-0.00305185094759972,-0.0119886878058209,-0.0162917976419365,0.00262967823318176
1.68,1,0.0703604235969115,-0.0862707398703981,0.00054424675232195,0.0199082410148422,-0.02147485783461,-0.0102593056021811,-0.0336212246060569,-0.179703156631163,0.00411999877925962,-0.00125634530676188,-0.919604073203731,0.593849503056937,0.0366679891354106,-0.0334330271309549,0.00146488845484787,-0.00392671488591164,0.00182093773206783
1.71,1,0.0562303537095248,-0.0417798394726402,-0.00405896176030763,0.0130720948922188,-0.0128126875616728,0.00201930804366181,-0.0168360443942585,-0.162002421135085,0.00940987375509914,0.00197861669769382,-0.802585935036266,0.549450158187607,-0.0183111056855983,-0.0744397310302032,-0.010808638772749,-4.06913459679963e-05,0.00167851802117985
1.74,1,0.0446689250363679,-0.0291248308765933,-0.0133976256599628,0.00940478733685313,-0.0087232072918892,-0.00279244361705374,-0.021739351583402,-0.156793928851182,0.0126448357595548,0.0097760958688111,-0.74517553229367,0.322448398286894,-0.0734834843999552,-0.118065940326141,-0.0135959959715567,-0.00281787570828374,0.00167851802117985
1.77,1,0.0304625588752912,-0.0365459150975066,-0.00361135695465967,0.0065513067008474,-0.00636819564399141,-0.000127160456149988,-0.021535894853562,-0.163874223049613,0.0102847376934111,0.0231279437645599,-0.713944924263232,0.0136417737357707,-0.120568458103173,-0.150939461450036,0.000147506129133986,-3.05185094759972e-05,0.00167851802117985
1.8,1,0.0251269061352377,-0.00816370128482925,-0.00373851741080966,0.00589007232886746,0.000152592547379986,-0.00352997426272368,-0.0102643920204271,-0.171096936958932,0.00314340647602771,0.0503301085441654,-0.625080111087374,-0.228054648477635,-0.160384940132857,-0.185430463576159,-0.00905891089612517,-0.00489822077089755,0.00167851802117985
1.83,1,0.02226325266274,-0.000152592547379986,-0.0115563422549109,0.00528987497583951,0.000152592547379986,-0.00409965310627562,-0.0158391064180425,-0.174209824925484,-0.00336720887885169,0.0474206773074536,-0.558910896125167,-0.340866318755659,-0.195247250790938,-0.217464725689464,-0.0129856257820368,-0.0043031098361156,0.00167851802117985
1.86,1,0.0202185125278481,0.000152592547379986,-0.0126906135237688,0.00478123315123956,0.000152592547379986,-0.00426750490839361,-0.0187688833277383,-0.174921923479924,-0.0101219723095391,0.0576189458906827,-0.557507044689271,-0.337885677663503,-0.228588722393465,-0.248695333719901,-0.0119785149693289,-0.00383007293923765,0.00167851802117985
1.89,1,0.0184382661417483,-0.000340790022481969,-0.0114953052359589,0.00421664072593361,0.000152592547379986,-0.00391145563117364,-0.0149642424797306,-0.169265826390372,-0.0139266131575467,0.0591448713644826,-0.582125308999908,-0.264280119225644,-0.261024811548204,-0.279391867834508,-0.011017181920835,-0.00334177678762169,0.00167851802117985
1.92,1,0.0145827611112807,-0.00744142989389732,-0.0075685903500473,0.00375886308379365,0.000152592547379986,-0.00368765322834966,0.00076296273689993,-0.158421582689901,-0.0174667602567624,0.0747805210526851,-0.59101128167567,-0.15001881974751,-0.268557796970529,-0.283054088971628,-0.00464898627684357,-0.00297555467390973,0.00167851802117985
1.95,1,0.0128737245806248,-0.000457777642139958,-0.00593585009308145,0.00338755455183569,0.000152592547379986,-0.0033112582781457,0.0271309549241615,-0.144199957274087,-0.0146794030579546,0.100065106153549,-0.480452894680624,-0.0421358887498601,-0.249265012563453,-0.262016663106174,-0.00704977568895535,-0.00273140659810175,0.00167851802117985
1.98,1,0.00813318277535325,-0.00876898505610319,-0.00240587583035778,0.00311288796655171,0.000152592547379986,-0.00229906104719179,0.0279447818435214,-0.127109591967528,-0.0032654805139317,0.123691518906217,-0.395758944466486,0.021612191127252,-0.261197749768568,-0.269244463433739,-0.00144962920010987,-0.00228888821069979,0.00167851802117985
2.01,1,0.00311797438479771,-0.0129500208543148,0.00338755455183569,0.00231940672017579,-0.000920641702525915,-0.000188197475101983,0.0234280424410738,-0.144789981790623,0.00973540452284311,0.115593941058585,-0.29952899767042,0.0183212785220903,-0.265475427513454,-0.268506932788069,0.0043132826726076,-0.000279753003529974,0.00167851802117985
2.04,1,-0.00161748100222785,-0.0116987619657989,0.00621560309661143,0.00127669097974588,-0.00645466475417341,-0.00182602415031383,0.0192368338063702,-0.174555701366212,0.0128279468164108,0.0719066947436954,-0.196869818211412,-0.0184179204687643,-0.25668101036612,-0.254804122033347,0.00721762749107334,0.00251777703176977,0.00167851802117985
2.07,1,-0.00310271513005971,-0.00128686381623788,0.00479140598773156,0.00197353027944782,0.00258898688721376,-0.00172938220363984,0.0193182164983062,-0.167821283608509,0.0021464684998118,0.0607826980396944,-0.0567542547888628,-0.0511032441175573,-0.259865108188116,-0.256533504236986,0.00299081392864772,-0.00481175166071556,0.00155644398327586
2.1,1,-0.0054017761772515,-0.00340790022481969,0.00469476404105757,0.000615456607765943,-0.00243639433983378,0.000457777642139958,0.0128889838353628,-0.13327433088168,-0.000823999755851924,0.0888698995941038,0.0554266996266569,-0.0959654530472732,-0.234412671285134,-0.228802351959797,0.00570696127201147,0.00316883856725771,0.00152083905555386
2.13,1,-0.00586464023763746,-0.00119530828780989,0.00249234494053977,0.00076296273689993,0.000152592547379986,0.000152592547379986,0.000376394950203965,-0.117893002105777,0.00393688772240364,0.116458632160405,0.158090965503911,-0.170110171819208,-0.226706747642445,-0.22064882351146,0.00409965310627562,-0.000305185094759972,0.00156153040152186
2.16,1,-0.00475580106000956,0.00455234433016958,0.00137841934466587,0.000910468866033916,0.000152592547379986,0.000152592547379986,-0.00985747856074709,-0.12818791263568,0.0103254290393791,0.0925829849136835,0.257220170700196,-0.187271746981211,-0.213868627989542,-0.208904283781447,0.000661234371979939,-0.000305185094759972,0.00167851802117985
2.19,1,-0.00379955442976165,0.000442518387401959,0.000152592547379986,0.000915555284279916,0.000152592547379986,0.000152592547379986,-0.0162053285317545,-0.139500106814783,0.010834070863979,0.0610624510432244,0.348857081820124,-0.176218960132654,-0.185399945066683,-0.181402020325327,0.0021719005910418,-0.000305185094759972,0.00167851802117985
2.22,1,-0.00086469110181992,0.000152592547379986,0.000152592547379986,0.000915555284279916,0.000152592547379986,0.000152592547379986,-0.0508133182775353,-0.127109591967528,0.0021871598457798,0.0507217627491073,0.269870092877997,-0.151717683441674,-0.168441826634521,-0.167388938057599,0.000808740501113926,-0.000305185094759972,0.00167851802117985
2.25,1,0.0022075055187638,0.000152592547379986,0.000152592547379986,0.000915555284279916,0.000152592547379986,0.000152592547379986,-0.0366730755536566,-0.131890825118768,0.00178024638609984,0.0556301563564969,0.23652862127547,-0.142958871222063,-0.159652495905433,-0.161768445895769,-0.000625629444257942,-0.000305185094759972,0.00167851802117985
2.28,1,0.00482701091545356,0.000152592547379986,-0.000122074037903989,0.000915555284279916,0.000152592547379986,0.000152592547379986,-0.0493891211686555,-0.136468601540167,0.00269580167037975,0.0490025533819595,0.224392427340515,-0.126188950265002,-0.159489730521561,-0.164204840235603,-0.00223293760999379,-0.000305185094759972,0.00167851802117985
2.31,1,0.00708538061667735,0.000152592547379986,-0.0032146163314717,0.000915555284279916,0.000152592547379986,0.000152592547379986,-0.043570258695232,-0.151381979837438,-0.00076296273689993,0.0285907569607634,0.197744682149724,-0.0812453586433505,-0.165700247199927,-0.172694072288176,-0.00363170262764367,-0.000305185094759972,0.00167851802117985
2.34,1,0.00877407147434919,0.000152592547379986,-0.00408439385153762,0.000915555284279916,0.000152592547379986,0.000152592547379986,-0.0412915433210242,-0.158360545670949,-0.00835189875993123,0.0208797468998281,0.207785271767327,0.0200659199804682,-0.162714519689525,-0.171386862798954,-0.00475071464176356,-0.000305185094759972,0.00167851802117985
2.37,1,0.0101219723095391,0.000152592547379986,-0.00492365286212755,0.00097659230323191,0.000152592547379986,0.000152592547379986,-0.0391145563117364,-0.160496841334269,-0.010752688172043,0.0253608813745537,0.221584724468724,0.155166275012462,-0.158767459130629,-0.168818221584724,-0.00555436872463149,-0.000305185094759972,0.00167851802117985
2.4,1,0.011312194179103,0.000152592547379986,-0.00590024516535946,0.0011088391776279,0.000152592547379986,0.000152592547379986,-0.043631295714184,-0.160822372102013,-0.00497451704458754,0.0192775251523382,0.262876267789748,0.250343333231605,-0.150690226955982,-0.161961729789117,-0.00628681295205542,-0.000427259132663961,0.00167851802117985
2.43,1,0.0123294778283029,0.000152592547379986,-0.0065309610278634,0.0010681478316599,0.000152592547379986,0.000152592547379986,-0.0589312417981506,-0.157485681732637,0.0010478021586759,-0.0100304167811111,0.254331085136469,0.28003784295175,-0.149683116143274,-0.161910865606657,-0.00692770165105136,-0.000305185094759972,0.00167851802117985
2.46,1,0.0132552059490748,0.000152592547379986,-0.00719219539984334,0.0010681478316599,0.000152592547379986,0.000152592547379986,-0.0536413668223111,-0.159235409609261,-0.000254320912299977,-0.0586667480493586,0.196366262805058,0.281828262174342,-0.139144057537563,-0.15230770795821,-0.00753807184057131,-0.000305185094759972,0.00167851802117985
2.49,1,0.0127262184514908,-0.00376394950203965,-0.00754824467706331,0.0010681478316599,0.000152592547379986,0.000152592547379986,-0.0610471917884864,-0.173314615314188,0.00129195023448388,-0.109785251421654,0.137251909950051,0.301248207037568,-0.135949786879075,-0.14859462263863,-0.00634784997100742,-0.000305185094759972,0.00167851802117985
2.52,1,0.0128381196529028,0.00183111056855983,-0.00275683868933175,-0.00504572690003154,-0.0318816695659251,0.00320444349497971,-0.12961210974456,-0.360576189458907,0.0191961424604022,-0.169479455956704,0.241838841924294,0.193894263537502,-0.1282896410006,-0.141056550798059,-0.00677510910367138,0.0180669576097903,0.171666615802484
2.55,4,0.0174871059297464,0.0124413790297149,-0.010528885769219,-0.0300403861608732,-0.076367483545437,0.0610980559709464,0.0233059684031699,-0.159683014414909,0.0277006337677135,0.0495213680430514,0.422325306965341,0.0775068412325409,-0.111168757184566,-0.128523616239916,-0.0136621194087547,0.086947233497116,0.451490829187902
2.58,4,0.0400809757784763,0.0683818068992177,-0.043295592109948,-0.032776879177221,0.0129195023448388,0.0411898149561042,-0.0616982533239743,-0.21917376222012,-0.0120548112430189,0.0402742596718243,0.532314015116835,0.102379426455479,-0.0837020986561683,-0.123691518906217,-0.0532039348531551,0.0240689311400698,0.648325042471592
2.61,4,0.0629088208665222,0.0697856583351136,-0.0722373119296854,-0.032207200333669,0.0064800968454034,0.0259407330545976,0.0263985106967376,-0.174413281655324,-0.0128686381623788,-0.0191554511144342,0.397523931597847,-0.0285246335235654,-0.0552283293150629,-0.118055767489649,-0.0735902991831212,0.0262255724763736,0.729799289936013
2.64,4,0.0728680277921893,0.0283516953032014,-0.0619322285632903,-0.0233364869126459,0.0358185572883287,0.00931831822667114,0.0143945636361787,-0.156509089429406,-0.00249234494053977,-0.0269885352132735,0.239509262367626,-0.0289518926562293,-0.0360525325276447,-0.108829004791406,-0.0613422040467544,-0.000457777642139958,0.69747001556444
2.67,4,0.0741599780266732,0.0021362956633198,-0.0383515935748365,-0.0183416241950743,0.00619525742362743,-0.000569678843551948,-0.0149032054607786,-0.158096051922157,-0.00086469110181992,-0.0137129835912147,0.151961831517482,-0.0236009806614378,-0.0299488306324452,-0.103996907457706,-0.0313628549048331,0.00483209733369956,0.601245155186621
2.7,4,0.0811080253507085,0.0232347585477259,-0.00343841873429568,-0.0159001434369945,0.00735496078371532,0.00310271513005971,-0.0293079419334493,-0.160537532680237,-0.00440483820103559,-0.00922676269824315,0.252296517838069,-0.00633767713451542,-0.0207729321166621,-0.101789401938943,-0.00953194779300312,0.000732444227423933,0.525538906013164
2.73,4,0.0923286640013835,0.0369477421389406,-0.0177109083325704,-0.00944039226457513,0.0195318460646382,-0.00121056754254789,0.00279753003529974,-0.154759361552782,-0.00721254107282734,-0.0393383587145604,0.330098371328878,-0.00146488845484787,-0.00236009806614378,-0.0945158238471633,-0.0204677470219021,-0.0033061718598997,0.492629779961547
2.76,4,0.103447574287138,0.0375072481460006,-0.0195725374106062,0.0065513067008474,0.0564185511846268,-0.00719219539984334,0.00243130792158778,-0.158747113457645,-0.00143436994537187,-0.0339264097008169,0.341746269112217,-0.0168767357402264,0.0175277972757144,-0.0856959746086001,-0.0197556484674622,-0.0194606362091942,0.488987904497411
2.79,4,0.118828903063041,0.0503453677989034,-0.0238553015737378,0.0278430534786014,0.0672119307026378,-0.0177414268420464,-0.00497451704458754,-0.162531408632669,-0.00249234494053977,-0.0373343099256366,0.398826054668823,-0.0032146163314717,0.0398775190486363,-0.0787275816115807,-0.0264595477156896,-0.0282703126112654,0.49585456912951
2.82,4,0.138208156580299,0.0641905982645141,-0.0319427065848771,0.0491348002563555,0.0692464980010376,-0.0272632017985575,-1.01728364919991e-05,-0.162938322092349,-0.00298064109215573,-0.0451979125339518,0.459130629393394,-0.0141911069063387,0.065431684316538,-0.0725323241879533,-0.0337839899899289,-0.032288583025605,0.509526861374757
2.85,4,0.163874223049613,0.0851771599475082,-0.0424614195176041,0.0744956816309092,0.0826441236610004,-0.0366629027171646,0.0139062674845627,-0.15541042308827,-0.00265511032441176,-0.054485712251147,0.516749575284077,-0.00551367737866349,0.0951872310556352,-0.0684428439181697,-0.0449130731121759,-0.0418408764915922,0.519404685608488
2.88,4,0.191473128452406,0.0909756767479476,-0.0502538122704754,0.100741599780267,0.0860316782128361,-0.0445468509984639,0.0200099693797622,-0.160089927874589,0.00100711081270791,-0.0571408225755587,0.525406659138768,-0.00307219662058372,0.12661112297942,-0.0646076845606861,-0.0495620593890194,-0.0482701091545356,0.527949868261767
2.91,4,0.223588773257647,0.106723227637562,-0.0575782545447147,0.126794234036276,0.0818099510686565,-0.0519933673106072,0.0147200944039226,-0.160659606718141,-0.00131229590746788,-0.0423800368256681,0.565253659677928,0.00305185094759972,0.159021780042929,-0.0643228451389101,-0.0569170201727348,-0.0515152439954833,0.547471541489914
2.94,4,0.264493748791976,0.137648650573239,-0.0714133121738334,0.156509089429406,0.0995513779107028,-0.0623289691864783,0.021515549180578,-0.160212001912493,0.00304167811110772,-0.0448927274391919,0.637379070406201,0.0198370311593982,0.195450707520778,-0.0687887203588977,-0.0726950895718253,-0.0623289691864783,0.556688131351665
2.97,4,0.30802331614124,0.146397289956359,-0.0807418032369966,0.187617623421939,0.0998667358419548,-0.0681071403139337,0.0354319895016327,-0.155329040396334,0.00129195023448388,-0.0343028046510208,0.632862331003754,0.00883002207505519,0.233720918403678,-0.0740684224982452,-0.0799686676636047,-0.0693278806929736,0.556077761162145
3,4,0.355906857509079,0.160883409120965,-0.08650980152796,0.219102552364676,0.105075228125858,-0.0769981994079409,0.0520747500025432,-0.148248746197902,0.00308236945707572,-0.0178024638609984,0.632262133650726,0.00842310861537523,0.271584215826899,-0.0840784936063723,-0.087445702485224,-0.075675730663981,0.555009613330485
3.03,4,0.403607287820063,0.162287260556861,-0.0900702943001597,0.253283282977793,0.113203324482966,-0.0837631356751203,0.0379548529516485,-0.166478469191565,0.000600197353027945,-0.0243537705618458,0.661336100344859,0.0159916989654225,0.310291858678955,-0.0930814539017914,-0.0890224921414838,-0.0861435794142481,0.553819391460921
3.06,4,0.456607765943378,0.179713329467655,-0.0970386872971791,0.284452853989278,0.0995615507471948,-0.0859096041749321,0.0586260567033906,-0.147150079856766,-0.000335703604235969,-0.0465305541144037,0.71258685059155,0.0270292265592415,0.3516851303649,-0.10467848750267,-0.098055970946379,-0.086794640949736,0.543707591987874
3.09,4,0.512609230831833,0.189926857305623,-0.104007080294198,0.314157536545915,0.100141402427239,-0.0910061952574236,0.0516678365428632,-0.143121636605935,-0.000661234371979939,-0.0318104597104811,0.741223385316528,0.0157170323801386,0.395214697714164,-0.117170730714845,-0.103885006256294,-0.0916063926104516,0.536077964618875
3.12,4,0.574124373098951,0.208400728375093,-0.114230780968657,0.345978169092888,0.106133203121026,-0.0987884151738029,0.0629800307219662,-0.169286172063356,0.000193283893347982,-0.032339447208065,0.827875606555376,0.0133874528234708,0.442274239326151,-0.131626331369976,-0.113722139144058,-0.0990732545955789,0.529028188929919
3.15,4,0.644011759798985,0.236742250841802,-0.128218431145156,0.378561764376761,0.111362041077914,-0.107303079317606,0.0768557796970529,-0.136163416445407,0.00645975117241941,-0.0410880865911842,0.905117954039125,0.0289824111657053,0.494806766970835,-0.148991363261818,-0.129093295083468,-0.107181005279702,0.522151351461328
3.18,4,0.71650339264097,0.246823531805373,-0.135837885677664,0.41443118584755,0.123630481887265,-0.117140212205369,0.0778730633462528,-0.141656748151087,0.00849431847081922,-0.0593890194402905,0.944914090395825,0.0574765261797947,0.549719738354645,-0.166570024719993,-0.135888749860123,-0.117455570136621,0.499862666707358
3.21,4,0.792901394695883,0.26049582405062,-0.143732006795455,0.451501002024394,0.122246976124353,-0.121412803532009,0.0815352844833725,-0.136366873175247,-0.00798567664621926,-0.0226955982136499,1.02685628833888,0.0632445244707582,0.609515671254616,-0.183151748201951,-0.143498031556139,-0.125756604714092,0.452721742403434
3.24,4,0.874345123650828,0.277860855942462,-0.153803114922534,0.48134810429192,0.0935392315439314,-0.119774976856797,0.0954110334584592,-0.190649128696554,0.00560523290709148,0.00644957833592741,1.10154525386313,0.0711284727520575,0.67329935605945,-0.200842310861538,-0.15347758415479,-0.121728161463261,0.411959186579994
3.27,4,0.962472406181015,0.301889095736564,-0.165623950926237,0.500401827041434,0.0519425031281472,-0.105299030528682,0.110304066082746,-0.164118371125421,0.000233975239315978,-0.0154627114678386,1.08278654337189,0.0671610665201778,0.740104373302408,-0.222144230475784,-0.166875209814753,-0.112135176651306,0.312875759147923
3.3,4,1.04073203731396,0.279142633340454,-0.158085879085665,0.500783308409884,-0.00776187424339529,-0.0862758262886441,0.126214382356232,-0.137628304900255,0.0364492731508326,-0.0810062969857886,0.845728934598834,-0.0190893276772362,0.796288949247719,-0.244224372081668,-0.160110273547573,-0.0895311339660838,0.172719504379406
3.33,4,1.10372224087242,0.218370108137252,-0.097557501958271,0.485976744895779,-0.0592923774936166,-0.0569577115187028,0.140456353445031,-0.0769778537349569,0.0261950539668976,-0.157119459618926,0.533992533138015,-0.187398907437361,0.836883653269041,-0.266589353109327,-0.0779849645476648,-0.0289010284737693,0.064800968454034
3.36,4,1.17373678802861,0.247510198268583,-0.0209000925728121,0.464374726605019,-0.0622475864945423,-0.0125634530676188,0.107923622343618,-0.21520635598824,-0.00285856705425174,-0.228832870469273,0.36921801405886,-0.199748730938648,0.863872188482315,-0.3096001057975,-0.032598854538611,0.021535894853562,0.0198878953418582
3.39,4,1.22111168757185,0.17429120761742,-0.0347046316924548,0.450148014770959,-0.0261238441114536,0.00508133182775353,-0.0180364391003143,-0.122898037659841,0.0164087852615945,-0.333552049317911,-0.133269244463434,-0.167404197312337,0.87125258135726,-0.349604785302286,-0.0361898658202867,0.0132908108767968,0.0054272082684815
3.42,4,1.22460605690685,0.0284381644133834,-0.0195420189011302,0.446948657694225,0.00718710898159734,0.00157170323801386,-0.0462558875291198,-0.10645873388877,-0.0054628131962035,-0.218054750206,-0.666046123640655,-0.272871079643137,0.84535253964863,-0.379034801273639,-0.0130314035462508,0.00054424675232195,0.00240078941211178
3.45,4,1.21443830683309,-0.0209458703370261,-0.0369782606484166,0.442426831873531,-0.00455234433016958,-0.0317239906002991,-0.0264595477156896,-0.134128849147008,0.00503555406353954,-0.219280577003286,-1.01256345306762,-0.222846156193731,0.792138431958983,-0.422091331726025,-0.0611285744804224,-0.118233792128259,0.00175990071311584
3.48,4,1.15947955768507,-0.176575009409874,-0.0910875779493596,0.380835393332723,-0.298847417625456,-0.11024811548204,-0.200313323363954,-0.0360423596911527,-0.0021261228268278,-0.263435773796808,-1.55289366334015,-0.215603096611428,0.631422874640136,-0.527832880642109,-0.0955737988423312,-0.12671285134434,0.00167851802117985
3.51,4,1.05617440310882,-0.34362315744499,-0.0530208237962991,0.245740124718975,-0.463143813389487,0.0156712546159246,-0.123549099195329,-0.0355540635395367,0.000966419466739911,-0.212632628355764,-2.36504206467889,-0.450173446862189,0.47567674794763,-0.580273852758365,-0.054038107445499,0.0266731772820215,0.00167851802117985
3.54,4,0.93198950163274,-0.421170690023499,-0.0302743614001892,0.139550970997243,-0.324991607409894,0.0291706086408073,-0.032197027497177,-0.180923897010203,0.0165308592994985,-0.338435010834071,-2.56308684550513,-0.332758568071535,0.284524063844722,-0.647206030457472,-0.0293435468611713,0.043427838984344,0.00167851802117985
3.57,4,0.791848506118961,-0.472263761304565,-0.0132908108767968,0.0780663472396008,-0.17510503453678,0.0258644367809076,0.00442518387401959,-0.200964384899442,-0.00971505884985911,-0.305063020722068,-2.81067334004741,-0.310851364686015,0.113539028087202,-0.678070416374198,-0.00592567725658945,0.0239468571021658,0.00167851802117985
3.6,4,0.638930427971231,-0.507080294198431,0.0126244900865708,0.0526851201920632,-0.0644347463403221,0.00704468927070935,0.125217444380016,-0.346029033275348,-0.0235501164789778,-0.19418927579577,-2.54035564236376,-0.201432335378073,-0.0489466027812535,-0.687749870296335,0.0144657734916227,-0.00168360443942585,0.00167851802117985
3.63,4,0.484506770022685,-0.512426119774977,0.0310932747377951,0.0478631956948556,-0.00688192388683737,-0.00685140537736137,0.135186824142176,-0.351725821710868,-0.0348012736391288,-0.143711661122471,-2.27360861028881,-0.022100487278868,-0.193421226640624,-0.677846613971374,0.032670064394055,-0.0211747591580961,0.00167851802117985
3.66,4,0.347580390840378,-0.458286283964558,0.0356456190679647,0.0467390972624897,-0.00687683746859137,-0.0167394024475845,0.123386333811457,-0.331115654978078,-0.0385448774681845,-0.0346232490005188,-1.82210760826441,0.246498001037629,-0.315347758415479,-0.662841680145675,0.0388602353994364,-0.0229092277799819,0.00167851802117985
3.69,4,0.238848027995646,-0.367051199886064,0.0347148045289468,0.042954802087466,-0.0147607857498906,-0.0186061179438663,0.105319376201666,-0.265602587969604,-0.0293893246253853,0.0750806197291991,-1.40289518926562,0.600461846776737,-0.412106692709128,-0.650888597267576,0.0362305571662547,-0.0183517970315663,0.00152083905555386
3.72,4,0.160257779676707,-0.267988118126977,0.0287230038351594,0.0353099154637288,-0.0293994974618773,-0.0155237484867906,0.0837733085116123,-0.189265622933643,-0.0239977212846258,0.10925626392407,-1.01162755211036,0.809442426831874,-0.482324696595152,-0.642496007161677,0.0286416211432234,-0.00903347880489517,0.00152592547379986
3.75,4,0.106855474511958,-0.183929970193589,0.0205898210598061,0.0271614734336375,-0.0264849798069196,-0.0100456760358491,0.0769981994079409,-0.171157973977884,-0.00605283771273944,0.114942879523097,-0.634296700949126,0.841873429568367,-0.530823694570757,-0.637572354299549,0.0196946114485102,-0.00515762810144353,0.00159204891099785
3.78,4,0.0705638803267515,-0.123915321309041,0.0152796004109826,0.022171697134312,-0.010935799228899,-0.00377412233853165,0.0730918301950133,-0.150588498591062,0.0043234555090996,0.125003814813684,-0.289106926684367,0.634581540370902,-0.550757367676829,-0.621255124566383,0.0137028107547227,-0.00553402305164749,0.00167851802117985
3.81,4,0.0474613686534216,-0.0797499516790267,0.0103305154576251,0.0229753512171799,0.00239570299386578,-0.00616473891415143,0.0354319895016327,-0.114922533850113,0.0175277972757144,0.148040203049816,-0.0562456129642628,0.279152806176946,-0.523733227535834,-0.571103040660827,0.00859096041749321,-0.0135502182073428,0.00167851802117985
3.84,4,0.0351624093345948,-0.043376974801884,0.00621560309661143,0.0228074994150619,-0.000162765383871985,-0.0098066143782871,0.0273344116540015,-0.10564490696941,0.0273344116540015,0.141275266782637,0.174906664225186,-0.0398317412844223,-0.51979633981343,-0.554857020783105,0.00399792474135563,-0.0120548112430189,0.00167851802117985
3.87,4,0.032578508865627,-0.011108737449263,0.000528987497583951,0.0206813765882341,-0.00731935585599333,-0.0101779229102451,0.00336720887885169,-0.114841151158177,0.0298165837580493,0.0817438276314585,0.336720887885169,-0.209204382457961,-0.503728344574318,-0.536220384329763,-0.000620543026011943,-0.00808740501113926,0.00167851802117985
3.9,4,0.0333821629484949,-0.000371308531957966,-0.00157170323801386,0.0209051789910581,0.000147506129133986,-0.00986765139723909,-0.011240984323659,-0.135247861161128,0.022227647735018,0.0180211798455763,0.467747021902117,-0.265170242418694,-0.474832402518794,-0.508128096357107,-0.00270088808862575,-0.010910367137669,0.00167851802117985
3.93,4,0.0354370759198787,0.000152592547379986,-0.00293994974618773,0.0210577715384381,0.000152592547379986,-0.010401725313069,-0.0377107048758405,-0.145908993804743,0.00615456607765943,-0.00021871598457798,0.566362498855556,-0.256436862290312,-0.404812768944365,-0.440183721427045,-0.00318918424024171,-0.010986663411359,0.00167851802117985
3.96,4,0.0414136173589282,0.00737530645669932,-0.00385550503046765,0.0210577715384381,0.000152592547379986,-0.010564490696941,-0.0616372163050223,-0.145318969288207,-0.00298064109215573,0.00428276416313161,0.419476912747581,-0.174616738385164,-0.37155776645202,-0.412890001119012,-0.00470493687754957,-0.010986663411359,0.00167851802117985
3.99,4,0.0451572211879838,0.00161239458398185,-0.00463881344035157,0.0210577715384381,0.000152592547379986,-0.010818811609241,-0.0590533158360546,-0.161066520177821,-0.00719219539984334,0.00576799829096347,0.385779391867834,-0.097699921669159,-0.342819503362122,-0.38784447767571,-0.0043590604368216,-0.010986663411359,0.00167851802117985
4.02,4,0.0478682821131016,0.000167851802117985,-0.00427767774488561,0.0210577715384381,0.000152592547379986,-0.010803552354503,-0.0532141076896471,-0.179418317209387,-0.0129907122002828,0.0224717958108259,0.354055401267535,-0.0369833470666626,-0.32085126295765,-0.368663594470046,-0.0043031098361156,-0.010986663411359,0.00167851802117985
4.05,4,0.0498519852290414,0.000152592547379986,-0.0043895789462976,0.0210577715384381,0.000152592547379986,-0.010935799228899,-0.0441602832117679,-0.189184240241707,-0.0143538722902107,0.0486821090324615,0.402183090711183,0.0603859574165064,-0.298242133854183,-0.347992390718304,-0.00473036896877956,-0.010986663411359,0.00167851802117985
4.08,4,0.0514745526495153,0.000152592547379986,-0.00464389985859757,0.0210577715384381,0.000152592547379986,-0.010935799228899,-0.0509150466424553,-0.186824142175563,-0.00574765261797947,0.0555945514287749,0.446846929329305,0.177261675873084,-0.272570980966623,-0.323994669433678,-0.00473036896877956,-0.010986663411359,0.00167851802117985
4.11,4,0.0530309966327911,0.000152592547379986,-0.00468967762281157,0.0210577715384381,0.000152592547379986,-0.010935799228899,-0.0639362773522141,-0.176549577318644,0.00340790022481969,0.0262459181493576,0.451109347819452,0.277174189479252,-0.245353556932279,-0.298303170873135,-0.00495925778984954,-0.010986663411359,0.00167851802117985
4.14,4,0.054480625832901,0.000152592547379986,-0.00501520839055554,0.0210018209377321,0.000152592547379986,-0.010935799228899,-0.065360474461094,-0.158950570187485,0.00951160212001912,-0.0202490310373241,0.406725262204861,0.355611845250811,-0.219921465702282,-0.274330881679739,-0.00518814661091952,-0.010986663411359,0.00167851802117985
4.17,4,0.0556352427747429,0.000152592547379986,-0.00514236884670553,0.0209000925728121,0.000152592547379986,-0.010981576993113,-0.174921923479924,-0.202897223832921,0.0585853653574226,-0.15131585640024,0.301644947660756,0.426450392162847,-0.205338704591001,-0.260917996765038,-0.00518814661091952,-0.010986663411359,0.00283313496302174
4.2,4,0.0563626005839208,0.000645975117241941,-0.00525427004811752,0.0123701691742709,-0.0425224565365561,-0.00807723217464726,-0.139378032776879,-0.357890560625019,-0.0353506068096967,-0.131295714183986,0.373892432426934,0.307494328643656,-0.190176091799677,-0.246431877600431,-0.00518814661091952,0.00295520900092573,0.214117862483596
4.23,4,0.0773745943581449,0.0624713888973663,-0.0166529333374025,-0.0261950539668976,-0.125359864090904,0.0185298216701763,0.0147607857498906,-0.159479557685069,-0.00503555406353954,0.0126346629230628,0.519358907844274,0.0560116377249468,-0.160664693136387,-0.23795281838435,-0.0277464115319274,0.0497451704458754,0.413714000874864
4.26,4,0.112623472802922,0.10472935168513,-0.0558285266680909,-0.0395774203721224,0.00400301115960163,0.0237179682810958,0.0412305063020722,-0.189265622933643,-0.00808740501113926,-0.0501520839055554,0.620100507624541,0.021505376344086,-0.122363963744011,-0.234870448927274,-0.0562913907284768,0.0152745139927366,0.56279691966511
4.29,4,0.143609932757551,0.0988443657745089,-0.0549943540757469,-0.010544145023957,0.105741548916084,-0.0126956999420148,0.00629698578854742,-0.16940824610126,-0.00822982472202724,-0.0426801355021821,0.541708629617196,-0.010711996826075,-0.0880764183477279,-0.231584622740359,-0.0550909960224209,-0.033066805017243,0.612959176407158
4.32,4,0.168197678558713,0.0788394828129927,-0.0457370728680278,0.0190028585670543,0.0822677287107964,-0.0284025594856614,-0.00485244300668355,-0.15296894233019,-0.00507624540950753,-0.0463728751487777,0.426948861150955,-0.0140944649596647,-0.0590584022543006,-0.227179784539323,-0.0451470483514918,-0.0358795943072807,0.601082389802749
4.35,4,0.183004242072817,0.0479191462955616,-0.0332804345835749,0.0306100650044252,0.0258288318531856,-0.0239926348663798,0.0043031098361156,-0.159072644225389,-0.00312306080304371,-0.0516271451968952,0.328597877946308,0.00345876440727968,-0.0367646310820846,-0.219702749717704,-0.0290943123671173,-0.0153558966846726,0.557522303944009
4.38,4,0.190506708985666,0.0250099185155797,-0.0198777225053662,0.0416475925982442,0.0411949013743502,-0.0185094759971923,0.0240791039765618,-0.15144301685639,0.00125125888851588,-0.0372885321614226,0.321955015717032,0.00166325876644185,-0.0178889329711804,-0.208329518519649,-0.0151727856278166,-0.0191198461867122,0.518122908210496
4.41,4,0.203278705201371,0.0428276416313161,-0.0169784641051464,0.06551815342672,0.0853246660766422,-0.0287993001088493,-0.000254320912299977,-0.161493779310485,-0.00350962858973968,-0.0404624571469263,0.426145207068087,-0.00688192388683737,0.00423189998067161,-0.198833175654368,-0.021362956633198,-0.0405997904395683,0.504801578824223
4.44,4,0.225012970366527,0.0723899044770653,-0.0332143111463769,0.0909349854019796,0.0780307423118788,-0.0408795434430982,0.00422172714417961,-0.161392050945565,-0.00147506129133986,-0.0492772199672435,0.4944049399294,0.00132755516220588,0.032364879299295,-0.192419202246162,-0.0377412233853165,-0.0445315917437259,0.50160222174749
4.47,4,0.255205949074781,0.0998565630054628,-0.0524613177892392,0.112781151768548,0.0687531154311757,-0.04330576494644,0.0166325876644185,-0.157119459618926,-0.00452691223893958,-0.0356252733949807,0.53867712434258,0.0188553524379203,0.0637226477858821,-0.191218807540106,-0.0536464532405571,-0.0443484806868699,0.50389110995819
4.5,4,0.28665018667155,0.104317351807204,-0.0577461063468327,0.138055564032919,0.086870937223426,-0.054801070182399,0.0340281380657369,-0.149896745709606,0.00137333292641987,-0.0364289274778486,0.541479740796126,0.0119174779503769,0.0959756258837652,-0.190430412711976,-0.0574765261797947,-0.054226304920601,0.510813725190995
4.53,4,0.321263262835576,0.114805546230455,-0.0618050681071403,0.167368592384615,0.0951414532914212,-0.0622577593310343,0.0248115482039857,-0.163446963916949,-0.00243130792158778,-0.04322946867275,0.551494898322499,0.0230313018178859,0.128762677897478,-0.19223100477106,-0.0619983520004883,-0.0635242774742882,0.514074119286681
4.56,4,0.359528387300231,0.12780643126723,-0.0710979542425815,0.195984781436608,0.0919980468153935,-0.0679443749300617,0.0334381135492009,-0.161819310078229,-0.000315357931251971,-0.0464746035136977,0.586850591550442,0.021469771416364,0.162963754183579,-0.196340830713828,-0.0708283740755435,-0.0680613625497197,0.516500340790022
4.59,4,0.399146499018321,0.134907071138646,-0.0736462497838272,0.225480920845159,0.0996480198573768,-0.075680817082227,0.0369579149754326,-0.160069582201605,0.00397757906837163,-0.0485396893215735,0.657953632211269,0.0172022665079704,0.200130212307098,-0.198761965798924,-0.0733664967802972,-0.0748110395621611,0.519653920102542
4.62,4,0.444456312753685,0.152190720338552,-0.0824406669311604,0.25762199774163,0.107130141097242,-0.0823745434939624,0.0398266548661763,-0.165562913907285,-0.000457777642139958,-0.054465366578163,0.721686452833644,0.032471694082461,0.241950743125706,-0.202230903042695,-0.0830866420484024,-0.0846685181229082,0.513799452701397
4.65,4,0.491576891384625,0.159418520666117,-0.0891954303618478,0.28718426058738,0.0943581448815373,-0.0858078758100121,0.0608844264046144,-0.148940499079358,0.00261441897844376,-0.0561947487818028,0.728858302560503,0.0353099154637288,0.285617643767612,-0.205740531632435,-0.0884731589709159,-0.0853399253313802,0.502232937609994
4.68,4,0.540854111351868,0.166987111016165,-0.0919522690511795,0.317941831720939,0.105421104566586,-0.0918200221767835,0.0586667480493586,-0.157933286538285,0.00456760358490758,-0.0338755455183569,0.772011474959563,0.0530615151422671,0.330474766279082,-0.210170801924701,-0.0922879726554155,-0.0938342438021994,0.495056001464888
4.71,4,0.592618589841405,0.175720491144546,-0.097989847509181,0.347066662597532,0.0928118737347535,-0.0950702434359773,0.0615558336130863,-0.174331898963388,0.000742617063915932,-0.0242266101056958,0.828664001383506,0.065808079266742,0.378465122430087,-0.21393475142674,-0.097359131646677,-0.0962146875413272,0.48274686930957
4.74,4,0.650339264097008,0.194560584327728,-0.10668762270984,0.372717469812108,0.0849533575446842,-0.0971048107343771,0.0690226955982137,-0.132582578000224,-0.0054831588691875,-0.0340942615029349,0.878251492863755,0.0797804701885027,0.430178736737164,-0.219906206447544,-0.107191178116194,-0.097369304483169,0.456572161015656
4.77,4,0.710699789422285,0.205593025503301,-0.11388490452793,0.400290943123671,0.0969674774417351,-0.10650959807123,0.0879034801273639,-0.162592445651621,0.0117903174942269,-0.0262611774040956,0.947075818150375,0.0926592811873735,0.484349091057059,-0.226137068798893,-0.11383404034547,-0.105812758771528,0.422004862615843
4.8,4,0.776696066164128,0.224850204982655,-0.124261197749769,0.43069246498001,0.101921648813339,-0.110700806705934,0.0880052084922839,-0.139439069795831,-0.00232957955666779,-0.0242520421969258,1.04720196132288,0.186056093020417,0.544689270709352,-0.231752474542477,-0.123900062054303,-0.113696707052828,0.376313567512029
4.83,4,0.84840439059623,0.244748273161005,-0.136056601662241,0.455402284819076,0.0791955320902127,-0.110675374614704,0.108269498784346,-0.167332987456893,-0.000335703604235969,0.00991851557969909,1.12752159184545,0.16905219682404,0.60999379456974,-0.238166447950682,-0.135497095655182,-0.110929695527004,0.340601825006867
4.86,4,0.927442243720817,0.270978932055625,-0.14849289427371,0.475615710928678,0.0611997843358664,-0.103544216233812,0.108167770419426,-0.176488540299692,-0.000396740623187963,0.0155491805780206,1.15163121433149,0.230623289691865,0.679438662882372,-0.247764519180883,-0.149876400036622,-0.10938342438022,0.279839472640156
4.89,4,1.00099185155797,0.252225307982625,-0.144138920255135,0.477350179550564,-0.00949125644703513,-0.0835800246182643,0.13113803521836,-0.119378236233609,0.0377920875677765,-0.101255328023113,0.907361064485611,0.0987731559190649,0.741655730867438,-0.259117404705954,-0.145049389121169,-0.0859706411938841,0.160033977273883
4.92,4,1.05916013061922,0.202861618905199,-0.0880408134200059,0.464573096916613,-0.0480056154057436,-0.0556606748659729,0.114169743949705,-0.102145451216163,0.0395214697714164,-0.21988586077456,0.595416119876705,-0.144454278186387,0.786100853500982,-0.272804956205939,-0.0703502507604195,-0.0270393993957335,0.0678935107476017
4.95,4,1.1240323089287,0.228354747154149,-0.0179296243171484,0.447579373556729,-0.0477716401664276,-0.011342712688579,0.10849330118717,-0.188695944090091,-0.00346893724377168,-0.196061077710298,0.449649545782851,-0.158818323313089,0.817128004801579,-0.306665242469558,-0.0278328806421094,0.0204270556759341,0.0207424136071861
4.98,4,1.17102064068524,0.1719005910418,-0.0309101636809392,0.432025106560462,-0.0344910021261228,0.00721254107282734,-0.0483718375194555,-0.115003916542049,-0.0086977752006592,-0.282596311329488,-0.0984679708243049,-0.0561082796716208,0.82843002614419,-0.342382071392967,-0.033107496363211,0.0198980681783502,0.00554928230638549
5.01,4,1.17471846675008,0.0287331766716514,-0.0178940193894264,0.424929553107293,-0.0021922462640258,0.0120955025889869,-0.0381990010274565,-0.10767947426781,-0.0197861669769382,-0.065650400301116,-0.649082918790246,-0.157465336059654,0.803837193924782,-0.370632038331248,-0.011357971943317,0.010401725313069,0.00242113508509578
5.04,4,1.16019165623951,-0.033158360545671,-0.0303404848373872,0.421297850479649,-0.000162765383871985,-0.00811283710236925,-0.0122582679728589,-0.139825637582527,-0.00991851557969909,0,-1.02023377178259,-0.0713217566454054,0.709774061301513,-0.450153101189205,-0.0554724773908709,-0.0935188858709474,0.00178024638609984
5.07,4,1.10013631600899,-0.191651153091016,-0.0810469883317566,0.37097282835373,-0.252042196925769,-0.115278583127333,-0.151727856278166,-0.086519974364452,0.00686666463209937,-0.0373088778344066,-1.47166865036978,-0.0891191340881578,0.601728364919991,-0.498163803013194,-0.087033702607298,-0.137017934710735,0.00167851802117985
5.1,4,0.994572791731519,-0.35150710572629,-0.0472426526688437,0.242077903581856,-0.463332010864589,-0.0159052298552405,-0.130324208299,-0.0336415702790409,0.0236925361898658,0.116641743217261,-2.33949807224748,-0.142806278674683,0.469745984272795,-0.524618264310638,-0.0461745048371838,0.0239265114291818,0.00167851802117985
5.13,4,0.875535345520391,-0.402188177129429,-0.0273751029999695,0.10630614134139,-0.456144901882992,-0.00458794925789158,-0.0211086357208981,-0.192093671478418,0.0240791039765618,-0.0136316008992787,-2.53499455753248,-0.204779198583941,0.288466037985371,-0.586794640949736,-0.0262357453128656,0.0995310322377188,0.00167851802117985
5.16,4,0.740455336161382,-0.450773644215216,-0.0121361939349549,-0.00523392437513352,-0.338256986195461,0.0712658060446994,0.0179347107353944,-0.24080121260211,0.010996836247851,-0.0672678813033438,-2.72094383576973,-0.22153894670451,0.124189987894325,-0.616011027354757,-0.00424207281716361,0.13068025757622,0.00167851802117985
5.19,4,0.597720267342143,-0.47460860011597,0.0131687368388928,-0.0349030020040488,-0.0350199896237068,0.0488041830703655,0.114983570869065,-0.337850072735781,-0.0102237006744591,-0.076296273689993,-2.50059511093478,-0.24301380453912,-0.032909126051617,-0.630481887264626,0.0141453291421247,0.043850011698762,0.00167851802117985
5.22,4,0.464929146193833,-0.456831568346202,0.0233873510951059,-0.0184128340505183,0.0677205725272378,0.00259407330545976,0.0922371084729555,-0.318745485803807,-0.00680562761314737,-0.0908230842005676,-2.25855281228065,-0.148859116387422,-0.170445875423444,-0.635283466088849,0.0259407330545976,-0.0121056754254789,0.00167851802117985
5.25,4,0.341125726086205,-0.414003926714886,0.0296334727011933,-0.0086977752006592,0.0180771304462823,-0.00672424492121138,0.098178044984283,-0.303364157027904,-0.00700908434298736,-0.0127669097974588,-1.89274778486485,0.043326110619424,-0.294747764519181,-0.635751416567482,0.032095299132257,-0.00481175166071556,0.00167851802117985
5.28,4,0.240933459476506,-0.339233578498693,0.0303353984191412,-0.00967436750389111,-0.00204474013489181,0.00511693675547553,0.113355917030346,-0.264219082206692,-0.0190537227495142,0.0167648345388145,-1.51969969786676,0.328287606433302,-0.397462894578895,-0.638274280017497,0.0310780154830571,0.00791446679077527,0.00167851802117985
5.31,4,0.165949481693981,-0.256538590655232,0.0256660664693136,-0.00877915789259519,-0.00118004903307189,0.00135298725343588,0.0894700969471318,-0.217627491073336,-0.0102237006744591,0.086428418836024,-1.1980956450087,0.534704631692455,-0.477289142531612,-0.643157241533657,0.0256355479598376,0.00416069012522762,0.00167851802117985
5.34,4,0.107903276670634,-0.198085472172206,0.02127140110477,-0.00840276294239123,0.00518814661091952,0.00271614734336375,0.0988291065197709,-0.200455743074842,-0.0098167872147791,0.109541103345846,-0.860703349915057,0.623798333689383,-0.538336334320098,-0.646117536952829,0.021281573941262,0.00243130792158778,0.00167851802117985
5.37,4,0.0616677348144983,-0.157567064424573,0.0194504633727022,-0.0086265653452152,0.00135298725343588,0.0032654805139317,0.101270587277851,-0.181534267199723,0.00483209733369956,0.146905931780958,-0.522700684631896,0.578773359375795,-0.579058198797571,-0.640624205247149,0.0195318460646382,0.00559506007059949,0.00167851802117985
5.4,4,0.0247810296945097,-0.126194036683248,0.0180974761192663,-0.00889105909400718,-0.00314340647602771,0.00300098676513972,0.0860113325398521,-0.158950570187485,0.0152083905555386,0.126092308318328,-0.25800347911008,0.393912574643188,-0.602018290760013,-0.626748456272062,0.0180771304462823,0.0065411338643554,0.00167851802117985
5.43,4,-0.000467950478631957,-0.0880560726747439,0.0155440941597746,-0.00856552832626321,-0.00270597450687175,0.00187180191452783,0.0753908912422051,-0.153335164443902,0.0257067578152816,0.118747520371105,0.032471694082461,0.0891038748334198,-0.607572659484644,-0.606962289295124,0.0148014770958586,0.00426241849014761,0.00167851802117985
5.46,4,-0.0160018718019145,-0.0550045269122389,0.0121667124444309,-0.00819930621255125,0.00162765383871985,0.00200404878892382,0.0521968240404472,-0.15459659616891,0.0279854731894894,0.111402732423882,0.252062542598753,-0.239092176071454,-0.534552039145075,-0.518306019267352,0.011078218939787,0.00351980142623168,0.00167851802117985
5.49,4,-0.021647796054974,-0.0203355001475061,0.00807723217464726,-0.00825017039501124,0.00363170262764367,0.00254320912299977,0.0397859635202083,-0.162653482670573,0.0224921414838099,0.114688558610797,0.480422376171148,-0.466129540899889,-0.464033936582537,-0.442172510961231,0.00608335622221544,0.00340790022481969,0.00167851802117985
5.52,4,-0.0223395489364299,-0.00311288796655171,0.00342824589780368,-0.00880967640207119,0.000854518265327921,0.00416069012522762,-0.173599454735964,-0.171402122053692,0.0427971231218401,0.033041372926013,0.400341807306131,-0.461205888037762,-0.398937955870235,-0.376405123040457,0.00261441897844376,0.00600197353027945,0.00181076489557583
5.55,4,-0.0405285805841243,-0.0607318338572344,0.00683614612262337,-0.011007009084343,-0.0124413790297149,0.00354014709921567,-0.271095919675283,-0.179987996052939,-0.0171412294890184,0.0136926379182307,-0.0248013753674937,-0.0209560431735181,-0.39290546383048,-0.352183599353008,0.0115868607643869,0.00843328145186722,0.0572527237769707
5.58,2,-0.0630614134139022,-0.0771101006093529,0.0183416241950743,-0.0243435977253538,-0.0504267504908394,0.0134790083518988,-0.00534073915829951,-0.172704245124668,0.0309966327911211,-0.00636819564399141,0.107435326192002,0.183874019592883,-0.388215786207668,-0.324940743227434,0.0200303150527462,0.0278328806421094,0.124596901354005
5.61,2,-0.0623289691864783,-0.00415051728873562,0.00876898505610319,-0.0420545060579241,-0.0478835413678396,0.0306507563503932,-0.0814742474644205,-0.162368643248797,-0.00338755455183569,0.0660013631600899,0.232408622496211,0.192795597196366,-0.378846603798537,-0.316253140863267,0.00407930743329162,0.0315764844711651,0.198533076977854
5.64,2,-0.0617999816888943,0.00124108605202389,0.000152592547379986,-0.0523799350973032,-0.0293994974618773,0.0238756472467218,-0.0312204351939451,-0.161473433637501,-0.0120548112430189,0.0355845820490127,0.218339589627776,0.181747896766055,-0.3473616748558,-0.285317545091098,-0.000183111056855983,0.0199184138513342,0.254717652923165
5.67,2,-0.0631122775963622,-0.00307219662058372,0.00239061657561978,-0.0666829432050539,-0.0491449730928475,0.0243741162348298,-0.0786665445926288,-0.141534674113183,-0.0173853775648264,0.0133569343139948,0.231360820337535,0.0596738588620665,-0.332621234778893,-0.269254636270231,0.00259407330545976,0.0277514979501734,0.311644845932391
5.7,2,-0.0633971170181382,-0.00311288796655171,0.00528987497583951,-0.0853602710043641,-0.0614337595751824,0.0338450270088809,-0.0488397879980875,-0.149021881771294,-0.00855535548977121,0.0191249326049582,0.249387086601357,0.0477207759839676,-0.319488102867723,-0.25586718344676,0.0199285866878262,0.0427767774488561,0.364441867325866
5.73,2,-0.0558895636870429,0.0267036957914975,0.0317392498550371,-0.0988494521927549,-0.0343740145064648,0.0417900123091322,-0.0459507024343598,-0.162734865362509,-0.00985747856074709,-0.011383404034547,0.334055604724265,0.0998362173324788,-0.298155664744001,-0.24202195298115,0.0236823633533738,0.0387585070345164,0.453016754661702
5.76,2,-0.0519831944741152,0.0147607857498906,0.0183619698680583,-0.108106733400474,-0.0337229529709769,0.0351369772433648,-0.0426953947569201,-0.154108300017294,-0.0122582679728589,-0.0122277494633829,0.301909441409548,0.0611285744804224,-0.27764722637613,-0.225419883826207,0.022095400860622,0.0359711498357087,0.564175339009776
5.79,2,-0.0522883795688752,0.000966419466739911,0.0300200404878892,-0.123589790541297,-0.0497960346283354,0.0459710481073438,-0.0402132226528723,-0.163955605741549,-0.0120141198970509,-0.021871598457798,0.276823226620279,0.0161036001668345,-0.259407330545976,-0.206925667083753,0.0312509537034211,0.0501419110690634,0.664672790714235
5.82,2,-0.0511795403912473,0.0054017761772515,0.0315968301441491,-0.132226528723004,-0.0227159438866339,0.0409660125532802,-0.0310983611560411,-0.171361430707724,-0.00473036896877956,-0.010722169662567,0.28085166987111,0.0123396506647949,-0.242357656585386,-0.190944140954822,0.0293689789524013,0.0379446801151565,0.746767581204667
5.85,2,-0.0525325276446832,-0.00352997426272368,0.0291756950590533,-0.13520716981516,-0.00244148075807978,0.032909126051617,-0.021291746777754,-0.163182470168157,-0.00249234494053977,0.022268339080986,0.236091189306314,0.00449639372946359,-0.218329416791284,-0.165562913907285,0.032654805139317,0.0273344116540015,0.80357270017599
5.88,2,-0.0534786014384391,-0.00125125888851588,0.0349945575324768,-0.134271268857896,0.00150557980081586,0.0233975239315978,-0.032197027497177,-0.158665730765709,-0.00668355357524339,0.0389721366008484,0.229804376354259,0.0199692780337942,-0.197627694530066,-0.143935463525295,0.0336415702790409,0.0225836970122379,0.853704438408561
5.91,2,-0.0579749951679027,-0.0124312061932229,0.0376496678568885,-0.129632455417544,0.0186773277993103,0.0205491297138381,-0.021617277545498,-0.157526373078606,-0.0075787631865393,0.0463677887305317,0.204870754112369,0.010661132643615,-0.177129428998688,-0.118920458591469,0.0402844325083163,0.0153915016123946,0.897000030518509
5.94,2,-0.0599078341013825,-0.00473036896877956,0.0414543087048962,-0.118432162439853,0.0394299142429884,0.00896226894945118,-0.0348419649850968,-0.159154026917325,-0.0116478977833389,0.043112481053092,0.249743135878577,0.0193690806807662,-0.162999359111301,-0.102877895443587,0.0399995930865403,0.00135298725343588,0.946185694957325
5.97,2,-0.0603045747245705,-4.06913459679963e-05,0.0371206803593046,-0.107058931241798,0.0300607318338572,0.000406913459679963,-0.0317901140374971,-0.161595507675405,-0.0122582679728589,0.0299183121229692,0.245307779168065,0.00969471317687511,-0.149235511337626,-0.0887274798832158,0.0369273964659566,0.00239061657561978,0.993031607002981
6,2,-0.0606097598193304,0.000152592547379986,0.0368256681010366,-0.097303181045971,0.0299793491419212,0.00342824589780368,-0.0256864121422976,-0.159357483647165,-0.010630614134139,0.0144556006551307,0.248003580838445,0.00310271513005971,-0.138116601051871,-0.0772830388297169,0.0370494705038606,0.00263476465142776,1.00555436872463
6.03,2,-0.0608640807316304,0.000152592547379986,0.0372020630512406,-0.0812199265521205,0.0551367737866349,-0.00457777642139958,-0.0191351054414502,-0.156061484623758,-0.00997955259865108,0.00835189875993123,0.274015523748487,0.00232957955666779,-0.119530828780989,-0.0584327728100426,0.0372325815607166,-0.0127465641244748,1.00889105909401
6.06,2,-0.0611590929898984,0.000152592547379986,0.0372224087242246,-0.0641905982645141,0.0487990966521195,-0.011169774468215,-0.0248725852229377,-0.158543656727805,-0.011322367015595,0.00350962858973968,0.284961495813878,-0.00582903530991546,-0.104393648080894,-0.043031098361156,0.0372325815607166,-0.0158797977640105,1.00463881344035
6.09,2,-0.0613727225562304,0.000152592547379986,0.0372427543972086,-0.0530004781233151,0.0310678426465651,-0.00835189875993123,-0.0166122419914345,-0.157933286538285,-0.00973540452284311,-0.00197353027944782,0.295673492639953,-0.0125634530676188,-0.0916877753023876,-0.0301319416893012,0.0373546555986206,-0.00558488723410749,1.0014038514359
6.12,2,-0.0614947965941343,0.000152592547379986,0.0375784580014445,-0.0332143111463769,0.0739158299508652,-0.00886054058453118,0.00153609831029186,-0.155735953856014,-0.00973540452284311,0.00145471561835587,0.339579454939421,0.00065106153548794,-0.0614947965941343,0.000162765383871985,0.0376903592028565,-0.0272530289620655,1.00301115960163
6.15,2,-0.0603757845800144,0.00403352966907763,0.0370952482680746,-0.00917589851578316,0.0693940041301716,-0.0285246335235654,-0.0282906582842494,-0.162083803827021,-0.010956144901883,-0.00195827102470982,0.3739992472101,-0.011291848506119,-0.0448113447472559,0.0156254768517106,0.0361339152195807,-0.0374512975452946,1.00603249203976
6.18,2,-0.0559811192154709,0.0140283415224667,0.0299742627236752,0.00396740623187963,0.0404573707286803,-0.0267901649016795,-0.00688701030508337,-0.160761335083061,-0.0119327372051149,-0.0133416750592568,0.39338867356385,-0.0251167332987457,-0.0250353506068097,0.0309813735363831,0.0278481398968474,-0.0211900184128341,1.01301105787327
6.21,2,-0.0508743552964873,0.0167851802117985,0.0246030050558997,0.0252794986826177,0.076123335469629,-0.0362152979115167,0.00226854253771579,-0.155654571164078,-0.010935799228899,-0.0157780693990905,0.441333251950641,-0.00933357748140914,-0.000127160456149988,0.0509048738059633,0.0232449313842179,-0.0482955412457656,1.01437930438144
6.24,2,-0.0420697653126621,0.0282092755923134,0.0179906613361003,0.0491297138381095,0.0718253120517594,-0.0632140059612822,-0.0142521439252907,-0.162592445651621,-0.0125837987406028,-0.0193843399355042,0.520035401470992,-0.00967436750389111,0.0285348063600574,0.0708182012390515,0.0132653787855668,-0.0639464501887061,1.01071708324432
6.27,2,-0.0308949044262012,0.032507299010183,0.00624612160608743,0.0730511388490453,0.0806197291990926,-0.0826288644062624,-0.0157170323801386,-0.168004394665365,-0.0103254290393791,-0.0232805363119399,0.699982706177964,-0.02167831456445,0.064973906674398,0.0960824406669312,0.00272632017985575,-0.0840988392793563,1.01085441653696
6.3,2,-0.0139520452487767,0.0423749504074221,-0.000732444227423933,0.101443525498215,0.0898770104068117,-0.111845250811284,0.0315866573076571,-0.149896745709606,-0.00411999877925962,-0.0167750073753065,0.690649128696554,-0.0386516922513504,0.108381399985758,0.122531815546129,-0.00732952869248533,-0.116646829635507,0.994674520096439
6.33,2,0.0236111534979298,0.106448561052278,-0.0491653187658315,0.126132999664296,0.0744804223761712,-0.134047466455072,0.00157678965625985,-0.177566860967844,-0.0178533280434584,-0.0128737245806248,0.748934395377463,0.0021362956633198,0.150761436811426,0.127206233914202,-0.0635853144932401,-0.137445193843399,0.982044943591622
6.36,2,0.0495162816248054,0.0718914354889574,-0.0672322763756218,0.14917956073692,0.0663828445285399,-0.159794915616321,0.043183690908536,-0.162022766808069,-0.000295012258267973,-0.011144342376985,0.624439222388379,-0.0265968810083316,0.19223100477106,0.142826624347667,-0.065589363282164,-0.162124495172989,0.965615812657043
6.39,2,0.076509903256325,0.0778323720002848,-0.0441246782840459,0.164632099368267,0.0393078402050844,-0.161208939888709,0.0115461694184189,-0.207108778140609,-0.0204982655313781,-0.0290332753481653,0.655151015757724,0.0422630492060101,0.229839981281981,0.15342671997233,-0.0419578641112501,-0.169082715333516,0.916887925860368
6.42,2,0.115980508845281,0.121631519516587,-0.0490228990549435,0.166508987701041,-0.0139164403210547,-0.179555650502029,0.0148218227688426,-0.226599932859279,-0.00609352905870744,-0.0319172744936471,0.720806502477086,0.0153355510116886,0.271904660176397,0.156010620441298,-0.0457625049592578,-0.188319549139887,0.802468947416608
6.45,2,0.169616789249346,0.1713919492172,-0.0411745557013662,0.146193833226519,-0.0953245643482772,-0.178528194016338,0.0205999938962981,-0.229244870347199,-0.00922676269824315,-0.0412966297392702,0.700125125888852,0.010605182042909,0.314813684499649,0.145303710033469,-0.0295622628457493,-0.188660339162369,0.620365001373333
6.48,2,0.237983336893826,0.227632475763217,-0.0120141198970509,0.101321451460311,-0.175059256772566,-0.167139703563545,-0.0179550564083783,-0.251848913032421,0.011281675669627,-0.0296589047924233,0.759839676096886,-0.0338958911913409,0.357488733583585,0.119596952218187,0.00276701152582375,-0.174784590187282,0.49455753247678
6.51,2,0.327204199346904,0.301365194657226,0.00470493687754957,0.0347809279661448,-0.243151137831762,-0.137318033387249,-0.022247993408002,-0.253537603890093,-0.0263781650237536,0.0196640929390342,0.923159479557685,0.0511286762087873,0.408703878902554,0.0815505437381105,0.0150914029358806,-0.136844996490371,0.396114993743706
6.54,2,0.437599820958078,0.375764234341461,0.00132246874395988,-0.0451267026785078,-0.27968179367453,-0.0828577532273324,-0.0314442375967691,-0.247413556321909,-0.00379446801151565,0.0402946053448083,1.01096123132013,0.0637633391318501,0.466923022146265,0.0294452752260913,0.0032197027497177,-0.0751009654021831,0.253161208939889
6.57,2,0.556550798059023,0.407722200181077,-0.00844345428835922,-0.1275266782637,-0.277255572171189,-0.0357727795241147,0.0231635486922819,-0.169774468214972,-0.0010884935046439,0.0597348958810185,0.911308125044506,0.0923235775831375,0.525711844233528,-0.0306049785861792,-0.0086774295276752,-0.0173090812911364,0.0822779015472884
6.6,2,0.667877234209215,0.383988972645243,-0.0157017731254006,-0.212963245541754,-0.288313445437991,-0.0125481938128808,-0.0154728843043306,-0.101657155064547,-0.00169886369416384,-0.0580716371145767,0.592893256426689,0.154225287636952,0.571423485010325,-0.0962096011230811,-0.0237790053000478,0.119530828780989,0.0182755007578763
6.63,2,0.751691234066795,0.294976653340251,-0.0271004364146855,-0.26306446526485,-0.0805383465071566,0.131880652282276,0.0191147597684662,-0.0955331074963632,0.0279854731894894,-0.12689087598295,0.231218400626647,0.0312306080304371,0.594882045960875,-0.156534521520636,-0.0295113986632893,0.178248441012808,0.00505081331827753
6.66,2,0.799930824711854,0.17340108442437,-0.021769870092878,-0.19978433586637,0.298903368226162,0.0743685211747592,-0.0557166254666789,-0.0289010284737693,0.00806705933815526,-0.156966867071546,-0.281853694265572,-0.170216986602374,0.593162836593727,-0.206523840042319,-0.021301919614246,0.0833257037059643,0.00231940672017579
6.69,2,0.816014079205705,0.0630308949044262,-0.032176681824193,-0.0836003702912483,0.422737306843267,0.0228685364340139,-0.0596433403525905,-0.0589515874711346,0.0098167872147791,-0.264585304320404,-0.740333262123478,-0.276945300658183,0.561255734936572,-0.254534541866309,-0.0535243792026531,-0.0194301176997182,0.00174464145837784
6.72,2,0.767825352743105,-0.157734916226691,-0.11266416414889,0.032191941078931,0.385804823959065,-0.032176681824193,-0.195471053193762,0.0735394350006612,-0.000600197353027945,-0.426226589760023,-1.50265511032441,-0.396079388815984,0.433164464247566,-0.334416740419731,-0.115705842259997,-0.115599027476831,0.00167851802117985
6.75,2,0.649820449435916,-0.393892228970204,-0.0523494165878272,0.08745078890347,0.126621295815912,-0.053844823552151,-0.152541683197526,-0.106702881964578,-0.0162256742047385,-0.442116560360525,-2.4654225287637,-0.725404624571469,0.269631031220435,-0.379919838048443,-0.054251737011831,-0.0749585456912951,0.00167851802117985
6.78,2,0.499638864304534,-0.505676442762536,-0.0147658721681366,0.0791192358165227,-0.0557674896491389,-0.032639545884579,-0.0560828475803908,-0.274371573025707,-0.0246487828201137,-0.501642913093458,-2.84846542761518,-0.974756106245104,0.109551276182338,-0.389848526464634,-0.00887071342102318,-0.0184179204687643,0.00167851802117985
6.81,2,0.341319009979553,-0.527776930041403,0.0206661173334961,0.0506352936389253,-0.0934324167607654,0.00228380179245379,0.112684509821874,-0.435000661234372,-0.0614337595751824,-0.396918647826573,-2.52528967151911,-1.07123528753522,-0.0556810205389569,-0.396903388571835,0.0230007833084099,0.00694804732403536,0.00167851802117985
6.84,2,0.198380484430474,-0.47766045106357,0.0382498652099165,0.0370240384126306,-0.0298369294310333,0.000940987375509913,0.0847905921608122,-0.347860143843908,-0.0895718253120518,-0.208182012390515,-2.07011118910286,-0.954095075329854,-0.192693868831446,-0.391013316242968,0.0427055675934121,-0.00286873989074374,0.00167851802117985
6.87,2,0.0940936511327453,-0.352738018941822,0.0384990997039705,0.0355031993570767,-0.000269580167037975,-0.00492365286212755,0.0837733085116123,-0.275938189845475,-0.0901821955015717,-0.125258135725984,-1.54483169042024,-0.604052858058412,-0.299900306202378,-0.393902401806696,0.0419324320200201,-0.0121819716991689,0.00167851802117985
6.9,2,0.0305948057496872,-0.215979491561632,0.0319071016571551,0.0349030020040488,0.000152592547379986,-0.00856552832626321,0.0669881282998138,-0.224463637195959,-0.0919115777052115,-0.0467645293537197,-1.07979064302499,-0.404019287697989,-0.376725567389955,-0.407203385519985,0.0315357931251971,-0.0121616260261849,0.00167851802117985
6.93,2,-0.00136316008992787,-0.108355967894528,0.021632536800236,0.032965076652323,-0.00736004720196132,-0.010681478316599,0.0625731172622862,-0.204524877671641,-0.0923998738568275,0.0967131565294351,-0.708782209743543,-0.596046835739209,-0.429039379050061,-0.427523626412753,0.0190486363312682,-0.00966419466739911,0.00167851802117985
6.96,2,-0.0165715506454665,-0.0498977629932554,0.0136010823898027,0.0320088300220751,-0.000167851802117985,-0.0097710094505651,0.0558590451775669,-0.190669474369538,-0.0875576036866359,0.269956561988179,-0.466388948230435,-1.00511693675548,-0.463820307016205,-0.447019867549669,0.0115817743461409,-0.010818811609241,0.00167851802117985
6.99,2,-0.0243639433983378,-0.0241960915962198,0.00947091077405113,0.0318053732922351,0.000152592547379986,-0.0102491327656891,0.0404166793827123,-0.173863948484756,-0.0776899522893968,0.402910448520361,-0.321314127018036,-1.40032654805139,-0.486551510157577,-0.46193324584694,0.00826034323150324,-0.010986663411359,0.00167851802117985
7.02,2,-0.0297352010661133,-0.0152796004109826,0.00769575080619729,0.0316222622353791,0.000152592547379986,-0.010864589373455,0.0400911486149683,-0.163243507187109,-0.065808079266742,0.504771060314747,-0.220557267983032,-1.6469211910357,-0.483672597430341,-0.453703421124912,0.00749738049460331,-0.010986663411359,0.00167851802117985
7.05,2,-0.0347249773654388,-0.0147862178411206,0.00767540513321329,0.0302082379629912,-0.00687683746859137,-0.010905280719423,0.0398876918851283,-0.157546718751589,-0.0493077384767195,0.563768425550096,-0.136107465844701,-1.71770378734703,-0.402849411501409,-0.3678955453149,0.00830103457747124,-0.00900804671366517,0.00167851802117985
7.08,2,-0.0386567786695964,-0.010915453555915,0.0086570838546912,0.0289925840021973,-0.00065106153548794,-0.00888597267576118,0.0363475447859127,-0.160334075950397,-0.0369375693024486,0.596158736940621,-0.0677154861089918,-1.67073071484522,-0.323180842514318,-0.284279915768914,0.00849940488906522,-0.00957772555721712,0.00167851802117985
7.11,2,-0.0414695679596342,-0.00859096041749321,0.00820439263079725,0.0288247322000793,0.000152592547379986,-0.00936409599088514,0.0332956938383129,-0.161107211523789,-0.0259712515640736,0.608767967772454,-0.0163630074973805,-1.5759097059033,-0.255053356527401,-0.213390504674418,0.00845362712485122,-0.0100711081270791,0.00167851802117985
7.14,2,-0.0422681356242561,-0.00189214758751183,0.00818913337605925,0.0265104118981496,-0.0076601458784753,-0.00912503433332316,0.0227362895596179,-0.176447848953724,0.0273344116540015,0.472874131494084,0.011139255958739,-1.51754305653045,-0.206671346171453,-0.164209926653849,0.00772118289742729,-0.00714133121738334,0.00167851802117985
7.17,2,-0.0424919380270801,0.000122074037903989,0.00754824467706331,0.0231228573463139,-0.0132450331125828,-0.00783308409883928,-0.0241401409955138,-0.159967853836685,0.162511062959685,0.366659545681122,-0.0130517492192348,-1.80868963693147,-0.194270658487706,-0.15154474522131,0.00747703482161931,-0.00520849228390352,0.00167851802117985
7.2,2,-0.0428072959583321,0.000152592547379986,0.00745668914863531,0.0171819208349864,-0.0175074516027304,-0.00043743196915596,0.0182602415031383,-0.162002421135085,0.0247708568580177,0.328511408836126,-0.00838241726940723,-1.43526515498316,-0.182164983062227,-0.139133884701071,0.00747703482161931,-0.00128177739799188,0.00464898627684357
7.23,2,-0.043844925280516,-0.0021566413363038,0.00753807184057131,0.0075889360230313,-0.0365204830062766,0.0032146163314717,0.00707012136193935,-0.179703156631163,0.00707012136193935,0.15607165746025,0.0389314452548804,-0.451175471256651,-0.168940295622628,-0.124871567939289,0.0076601458784753,0.00512710959196753,0.0585955381939146
7.26,2,-0.0460219122898038,-0.00499486271757154,0.00836207159642323,-0.0127669097974588,-0.0668253629159418,0.010966317738375,-0.0229600919624419,-0.14910326446323,0.0493077384767195,0.0879543443098239,0.0445265053254799,0.0939766635130874,-0.160049236528621,-0.113823867508978,0.00888088625751518,0.0207322407706941,0.159265928118737
7.29,2,-0.0461745048371838,-4.06913459679963e-05,0.0131229590746788,-0.0367239397361166,-0.0744855087944171,0.0292062135685293,-0.0286161890519934,-0.165908790348013,-0.00184128340505183,0.133365886410108,0.0261747082939136,0.123762728761661,-0.159835606962289,-0.11342712688579,0.0202032532731101,0.0454624062827438,0.299396750796024
7.32,2,-0.0448825546026999,0.00596128218431145,0.0274564856919055,-0.0512304045737073,-0.0339976195562609,0.04345835749382,-0.0275989054027935,-0.177831354716636,-0.00281787570828374,0.111107720165614,0.0679240292570777,0.0403251238542843,-0.157404299040702,-0.112277596362194,0.0252998443556017,0.0401928769798883,0.464837590665405
7.35,2,-0.043987344991404,0.00297046825566373,0.0234178696045818,-0.0586972665588346,-0.0234076967680898,0.0337839899899289,-0.0370392976673686,-0.15500350962859,0.0153304645934426,0.119123915321309,0.0482192449720756,0.00612404756818344,-0.156753237505214,-0.112542090110986,0.0247912025310017,0.0316171758171331,0.611743522446364
7.38,2,-0.0442213202307199,0.000223802402823979,0.0265816217535936,-0.0738446200954212,-0.054241564175339,0.0471714428133997,-0.0444451226335439,-0.161066520177821,0.00808740501113926,0.101952167322815,0.0466119368063397,0.0229295734529659,-0.167119357890561,-0.122684408093509,0.0269274981943215,0.054516230760623,0.749666839604887
7.41,2,-0.0443840856145919,0.000152592547379986,0.0271207820876695,-0.08686585080518,-0.032542903937905,0.0514948983224993,-0.0252388073366497,-0.170547603788364,0.00580868963693147,0.0736309905290892,0.0714743491927854,0.0155847855057426,-0.167851802117985,-0.123284605446537,0.0270088808862575,0.0516576637063712,0.850805180008342
7.44,2,-0.043417666147852,0.0032959990234077,0.0270088808862575,-0.0919217505417035,-0.00954212062949512,0.0429191971597441,-0.0311797438479771,-0.161758273059277,0.00593076367483545,0.0684937081006297,0.0803348897773166,0.00152592547379986,-0.163609729300821,-0.119968260750145,0.0258898688721376,0.0394604327524644,0.921506393627735
7.47,2,-0.0417900123091322,0.0054831588691875,0.021902116967274,-0.0945361695201473,-0.0075787631865393,0.0379345072786645,-0.0352081870988088,-0.157811212500381,0.00458794925789158,0.04396699931842,0.086570838546912,-0.0231330301828059,-0.160435804315317,-0.118411816766869,0.021963153986226,0.0381786553544725,0.971027761670787
7.5,2,-0.0410473952452162,0.00274666585283975,0.0242215236874498,-0.0954415519679352,1.01728364919991e-05,0.0364391003143406,-0.0345571255633208,-0.157689138462477,0.00556454156112349,0.0262357453128656,0.100527970213935,-0.032125817641733,-0.158330027161473,-0.117089348022909,0.0246894741660817,0.0349131748405408,0.998687704092532
7.53,2,-0.0357371745963927,0.0173243405458744,0.0182805871761223,-0.0956450086977752,0.000152592547379986,0.0349436933500168,-0.0334177678762169,-0.157729829808445,0.00666320790225939,0.0125329345581428,0.128991566718548,-0.0240791039765618,-0.152806176946318,-0.116824854274117,0.0140588600319427,0.0347911008026368,1.02372305469934
7.56,2,-0.0298979664499853,0.0185349080884223,0.010813725190995,-0.0956043173518072,0.000152592547379986,0.0351369772433648,-0.0285348063600574,-0.157526373078606,0.00584938098289946,-0.00125125888851588,0.134932503229876,-0.0156865138706626,-0.144881537319051,-0.114769941302733,0.00920641702525915,0.0347911008026368,1.03650013733329
7.59,2,-0.0257271034882656,0.010935799228899,0.0100711081270791,-0.0926948861150955,0.0100202439446191,0.0313832005778171,-0.0285348063600574,-0.159357483647165,0.00747703482161931,-0.0114444410534989,0.155532497126174,-0.00819930621255125,-0.136499120049643,-0.110558386995046,0.0101830093284911,0.0295012258267973,1.0450046286406
7.62,2,-0.02167831456445,0.00444552954700359,0.00954212062949512,-0.0882697022410759,0.0181686859747103,0.0270088808862575,-0.0295520900092573,-0.159031952879421,0.00621560309661143,-0.0250963876257617,0.188634907071139,-0.0170496739605904,-0.1280353200883,-0.106143375957518,0.010457675913775,0.0229499191259499,1.04909410891039
7.65,2,-0.010773033845027,0.022166610716066,0.00487278867966755,-0.0812402722251045,0.0210882900479141,0.021210364085818,-0.02157658619953,-0.158299508651997,0.0043031098361156,-0.0488906521805475,0.151076794742678,-0.0316375214901171,-0.119032359792881,-0.108066042054506,-0.000152592547379986,0.0179347107353944,1.0536617124953
7.68,2,0.00617491175064343,0.043020925524664,-0.0162663655507065,-0.0751670888393811,0.0198777225053662,0.0184128340505183,-0.0275989054027935,-0.159967853836685,0.00580868963693147,-0.0696635842972096,0.187912635680207,-0.00773135573391929,-0.10879848628193,-0.114871669667653,-0.0242723878699098,0.0165206864630065,1.05334635456404
7.71,2,0.0139571316670227,0.0146387117119867,-0.021281573941262,-0.0688294117048657,0.0176702169866024,0.0163375754061505,-0.00676493626717938,-0.15724153365683,0.00768049155145929,-0.0787072359385968,0.0838038270210883,-0.0383109022288685,-0.0998667358419548,-0.113742484817042,-0.0173243405458744,0.0146692302214627,1.04528946806238
7.74,2,0.0197353027944782,0.00855535548977121,-0.0133772799869788,-0.0668660542619098,0.00145471561835587,0.0182500686666463,-0.0246691284930977,-0.166641234575437,0.00792463962726727,-0.0814640746279285,0.0797855566067487,-0.0350861130609048,-0.0939664906765953,-0.113610237942646,-0.0145878475295267,0.0232957955666779,1.01878922900072
7.77,2,0.0279447818435214,0.0195521917376222,-0.0209356975005341,-0.0630105492314422,0.0137028107547227,0.0204575741854101,-0.0165308592994985,-0.164565975931069,0.0121565396079389,-0.0901516769920957,0.0726747438988413,-0.0751263974934131,-0.0890835291604358,-0.116957101148513,-0.0252591530096337,0.0160629088208665,0.890306304106774
7.8,2,0.0339264097008169,0.0146183660390027,-0.0278328806421094,-0.0583106987721386,0.0151676992095706,0.0164291309345785,-0.0153915016123946,-0.161025828831853,0.00645975117241941,-0.075930051576281,0.0466017639698477,-0.118493199458805,-0.0855637277342041,-0.119429100416069,-0.0281787570828374,0.0134383170059308,0.682668538468581
7.83,2,0.0345876440727968,-0.00177007354960784,-0.0234992522965178,-0.0561031932533748,0.00242113508509578,0.0152796004109826,-0.033051545762505,-0.163426618243965,0.010813725190995,-0.0774152857041129,0.0295113986632893,-0.264330983408104,-0.0863673818170721,-0.120853297524949,-0.0198878953418582,0.0178228095339824,0.450982187363302
7.86,2,0.0356252733949807,0.000803654082867926,-0.0222886847539699,-0.0538041322061831,0.00790429395428327,0.0168360443942585,-0.0549434898932869,-0.158665730765709,0.00186162907803583,-0.0504165776543474,0.0117597989847509,-0.608986683757032,-0.0946480707215593,-0.130181788588112,-0.0229295734529659,0.0153711559394106,0.248461358480585
7.89,2,0.0345978169092888,-0.00413017161575162,-0.0176803898230944,-0.0510981576993113,0.00984730572425509,0.0155949583422346,-0.0571001312295907,-0.168228197068189,0.00100711081270791,-0.0131738232571388,-0.0140181686859747,-1.09211503443505,-0.10732342499059,-0.141819513534959,-0.0176702169866024,0.0145878475295267,0.0987375509913429
7.92,2,0.0350555945514288,-4.06913459679963e-05,-0.0201218705811742,-0.0451775668609678,0.0203456729839981,0.0114647867264829,-0.0672729677215898,-0.161921038443149,-0.00257372763247576,-0.00469985045930357,-0.0472019613228757,-1.44222337514369,-0.109144362722658,-0.144088056072675,-0.0206305124057741,0.00533056632180751,0.0239366842656738
7.95,2,0.0354421623381247,0.000152592547379986,-0.0209763888465021,-0.0406608274585203,0.00970488601336711,0.00400809757784763,-0.0767540513321329,-0.153538621173742,-0.00993886125268309,0.00562557858007548,-0.101524908190151,-1.55573188472142,-0.114963225196081,-0.15032400484227,-0.0211493270668661,0.00725323241879533,0.00621560309661143
7.98,2,0.0357371745963927,0.000152592547379986,-0.021240882595294,-0.0401521856339203,0.000172938220363984,0.00859604683573921,-0.075696076336965,-0.146458326975311,-0.0354116438286487,0.0636310922574541,-0.147943561103142,-1.42820520645772,-0.150293486332794,-0.185939105400759,-0.021210364085818,0.0162968840601825,0.00255338195949177
8.01,2,0.0359711498357087,0.000152592547379986,-0.021200191249326,-0.0387788527075004,0.00700908434298736,0.0136926379182307,-0.076265755180517,-0.15439313943907,-0.0416374197617522,0.065614795373394,-0.219051688182216,-1.16290780358287,-0.170242418693604,-0.206111840164393,-0.021210364085818,0.0133264158045188,0.00181076489557583
8.04,2,0.0362152979115167,0.000152592547379986,-0.02157658619953,-0.0354319895016327,0.010783206681519,0.0116682434563229,-0.0748008667256691,-0.156468398083438,-0.043590604368216,0.0863572089805801,-0.283018484043906,-0.900255338195949,-0.185410117903175,-0.221544033122756,-0.021820734275338,0.010386466058331,0.00167851802117985
