time,Mode,Knee_Angle,Knee_Velocity,Knee_Current,Ankle_Angle,Ankle_Velocity,Ankle_Current,Acc_X,Acc_Y,Acc_Z,Gyro_X,Gyro_Z,Gyro_Y,Shank_Angle,Thigh_Angle,Knee_Ref_Torque,Ankle_Ref_Torque,Filtered_Vertical_Load
0,1,0.0086570838546912,0.00196335744295582,-0.00483209733369956,-0.0884222947884559,0.000152592547379986,0.0816471856847845,-0.0423698639891761,-0.155695262510046,-0.0120548112430189,-0.0468052206996877,-0.00772118289742729,-0.0442213202307199,-0.217607145400352,-0.226131982380647,-0.00589007232886746,0.0816370128482925,0.956165247555976
0.03,1,0.010813725190995,0.000203456729839981,-0.00574765261797947,-0.0881883195491399,0.000152592547379986,0.0816573585212765,-0.0391145563117364,-0.157322916348766,-0.00411999877925962,-0.032074953459273,-0.0298267565945413,-0.0405387534206163,-0.218451490829188,-0.229163487655263,-0.00598162785729545,0.0816370128482925,0.931313008006022
0.06,1,0.0125431073946348,0.000152592547379986,-0.00634784997100742,-0.087130344553972,0.0065106153548794,0.0796227912228767,-0.0424919380270801,-0.158421582689901,-0.00509659108249153,-0.0228583635975219,-0.0457167271950438,-0.0227769809055859,-0.221096428317108,-0.233558153019807,-0.00702943001597135,0.0776085695974609,0.897152623065889
0.09,1,0.0138452304656107,0.000152592547379986,-0.00738547929319132,-0.0862554806156601,0.0033061718598997,0.075624866481521,-0.0384228034302805,-0.161432742291533,-0.00680562761314737,-0.0132246874395988,-0.0443230485956399,-0.0211391542303741,-0.224809513636687,-0.238573361410362,-0.00787377544480728,0.0783817051708528,0.845576342051454
0.12,1,0.0149032054607786,0.000152592547379986,-0.00816878770307525,-0.0831527654856004,0.00841293577888323,0.0708131148208055,-0.0473342081972716,-0.154026917325358,-0.00680562761314737,-0.00385550503046765,-0.0494501581876075,-0.0350759402244128,-0.231655832595803,-0.246487828201137,-0.00845362712485122,0.0707113864558855,0.765383871985026
0.15,1,0.0156966867071546,0.000152592547379986,-0.00878933072908719,-0.0803654082867926,0.0116478977833389,0.0680155847855057,-0.0442009745577359,-0.159194718263293,-0.00993886125268309,-0.00289925840021973,-0.054872280037843,-0.0494094668416395,-0.235735140029094,-0.251350444044313,-0.00900296029541917,0.0663065482548499,0.665649383017467
0.18,1,0.0162663655507065,0.000152592547379986,-0.00917589851578316,-0.076550594602293,0.0131229590746788,0.0628884751935382,-0.0443230485956399,-0.157811212500381,-0.00582903530991546,0.0169682912686544,-0.0721152378917814,-0.0875677765231279,-0.238481805881934,-0.254697307250181,-0.00945056510106713,0.0632750429802342,0.546301665293334
0.21,1,0.0149947609892066,-0.00509659108249153,-0.00908434298735517,-0.0722373119296854,0.0115359965819269,0.0567135634428948,-0.0400504572690003,-0.161229285561693,-0.0053814305042675,0.0315459659616891,-0.0966419466739911,-0.102674438713747,-0.24273405153559,-0.257627084159876,-0.00690735597806736,0.0577613656015707,0.413942889695934
0.24,1,0.0133365886410108,-0.00319427065848771,-0.00490330718914355,-0.0660827458520259,0.021841079948322,0.0496129235714794,-0.0361847794020407,-0.165746024964141,-0.00965402183090711,0.0515457625049593,-0.146488845484787,-0.142623167617827,-0.249448123620309,-0.262672811059908,-0.00534073915829951,0.0476292204555396,0.28136031169571
0.27,1,0.010696737571337,-0.0011037527593819,-0.00595110934781945,-0.0558437859228289,0.0393027537868384,0.0378989023509425,-0.0354930265205847,-0.1731721956033,-0.0147607857498906,0.138264107181005,-0.147109388510798,-0.344747255877356,-0.253583381654307,-0.26423434146143,-0.00631733146153142,0.0268868068483535,0.165812148401339
0.3,1,1.01728364919991e-05,-0.0235145115512558,0.00370799890133366,-0.0395367290261544,0.054063539536729,0.011210465814183,-0.0718303984700054,-0.166681925921405,-0.0149845881527146,0.15022227647735,-0.0954466383861812,-0.586199530014954,-0.258573157953632,-0.258420565406252,0.00972523168635111,-0.000523901079337952,0.0810368154952645
0.33,1,-0.010457675913775,-0.0240791039765618,0.0167444888658305,-0.0302947070731732,0.0154118472853786,0.00315866573076571,-0.00446587521998759,-0.157180496637878,-0.00399792474135563,0.109073152867214,-2.54320912299977e-05,-0.658558915982543,-0.2563249610889,-0.245638396354055,0.0191096733502202,0.0155237484867906,0.0242927335428938
0.36,1,-0.0140690328684347,-0.00383515935748365,0.0147251808221686,-0.0242673014516638,0.0171666615802484,0.0120853297524949,0.0427971231218401,-0.168960641295612,0.0189316487116103,0.0812555314798425,0.203217668182419,-0.72296314381339,-0.24125899024425,-0.226966154972991,0.011352885525071,0.0118055767489649,0.00627664011556342
0.39,1,-0.0159001434369945,3.05185094759972e-05,0.00994394767092909,-0.0181686859747103,0.0121565396079389,0.00346385082552568,0.0195013275551622,-0.153762423576566,0.00717184972685934,0.0596535131890825,0.281675669626962,-0.675756096072268,-0.186330759605701,-0.17019664092939,0.00965402183090711,0.00629698578854742,0.00257372763247576
0.42,1,-0.0172480442721844,0.000152592547379986,0.0100405896176031,-0.0167292296110925,0.000198370311593982,0.0086825159459212,0.011220638650675,-0.144566179387799,0.00281787570828374,0.0458744061606698,0.347290465000356,-0.544460381888282,-0.129576504816838,-0.11210465814183,0.010437330240791,0.0155339213232826,0.00180059205908383
0.45,1,-0.0180669576097903,0.000152592547379986,0.010859502955209,-0.0145115512558367,0.00718202256335134,0.0121972309539069,0.00239061657561978,-0.146621092359183,0.00428276416313161,0.0225023143203019,0.376049073763237,-0.371771396018352,-0.086962492751854,-0.0686920784122237,0.010910367137669,0.00967945392213711,0.00167851802117985
0.48,1,-0.0163223161514125,0.0076550594602293,0.0086570838546912,-0.0125939715770948,0.000956246630247912,0.00515254168319753,-0.00704977568895535,-0.15144301685639,0.00519831944741152,-0.00263476465142776,0.41018402661214,-0.223375143691315,-0.0564490696941028,-0.0399131239763583,0.00659708446506139,0.0102898241116571,0.00167851802117985
0.51,1,-0.0165664642272205,0.00134281441694388,0.00730918301950133,-0.0121005890072329,0.000152592547379986,0.00846379996134322,-0.0131534775841548,-0.154474522131006,0.0033061718598997,-0.0275785597298095,0.439934486932992,-0.0812453586433505,-0.033061718598997,-0.0163019704784285,0.00913520716981516,0.011276589251381,0.00167851802117985
0.54,1,-0.0162409334594765,0.000157678965625985,0.00960315764844712,-0.0116529842015849,0.000152592547379986,0.0102084414197211,-0.0156153040152186,-0.161229285561693,-0.00173955504013184,-0.0398470005391603,0.479603462833542,0.0250709555345317,-0.0143742179631947,0.00198370311593982,0.00991851557969909,0.010834070863979,0.00167851802117985
0.57,1,-0.0144556006551307,0.000259407330545976,0.00967436750389111,-0.011302021342611,0.000152592547379986,0.010635700552385,-0.0486770226142155,-0.165257728812525,-0.0097964415417951,-0.0423088269702241,0.485274819177831,0.08666239407534,0.011134169540493,0.0258237454349396,0.00906399731437117,0.010544145023957,0.00167851802117985
0.6,1,-0.00934375031790114,0.00800602231920326,0.00355540635395367,-0.010854416536963,0.000152592547379986,0.010422070986053,-0.139927365947447,-0.14879807936847,-0.00645975117241941,-0.0508489232052573,0.224692526017029,0.206091494491409,0.0332499160740989,0.0427869502853481,0.00224311044648579,0.0102084414197211,0.00167851802117985
0.63,1,-0.00841802219712923,-0.000208543148085981,0.00401318399609363,-0.0101474044007691,0.000152592547379986,0.0100711081270791,-0.2175461083814,-0.141656748151087,0.0295520900092573,-0.087104912462742,-0.225613167719555,0.316680399995931,0.0320495213680431,0.0406710002950123,0.00427767774488561,0.00957263913897112,0.00171920936714784
0.66,1,-0.0140079958494827,-0.0134840947701448,0.00949634286528113,-0.00997446618040508,0.000152592547379986,0.00967945392213711,-0.0571204769025747,-0.159560940377005,-0.00086469110181992,0.0413983581041902,-0.0749636321095411,0.188675598417107,0.0133162429680268,0.0275226091291035,0.0150405387534206,0.00930814539017914,0.0278328806421094
0.69,1,-0.0130720948922188,0.00844345428835922,0.011271502833135,-0.010859502955209,-0.00117496261482589,0.00967436750389111,-0.0261950539668976,-0.163019704784285,-0.0128686381623788,-0.00611387473169144,0.0145827611112807,0.114647867264829,-0.00189723400575783,0.011240984323659,0.00592567725658945,0.0097913551235491,0.0940377005320394
0.72,1,-0.0120141198970509,0.00629698578854742,0.0021820734275338,-0.0137028107547227,-0.00635293638925342,0.0137231564277067,-0.0207424136071861,-0.158055360576189,-3.05185094759972e-05,-0.021947894731488,0.0398368277026683,0.0594958342234565,-0.00383007293923765,0.00827051606799524,0.0032502212591937,0.0182449822484003,0.175857824437188
0.75,1,-0.011307107760857,0.000442518387401959,0.00595110934781945,-0.0143894772179327,0.000152592547379986,0.0141961933245847,-0.0204168828394421,-0.161595507675405,0.00422172714417961,-0.0202846359650461,0.0526749473555711,0.0461643320006917,-0.0165461185542365,-0.00503046764529354,0.00671407208471938,0.0133213293862728,0.256853948586484
0.78,1,-0.00893683685822118,0.000152592547379986,0.00630207220679342,-0.0151219214453566,0.000152592547379986,0.0136366873175247,-0.0180974761192663,-0.161860001424197,-5.08641824599953e-05,-0.010549231442203,0.0468459120456557,0.0197047842850022,-0.0232957955666779,-0.0141300698873867,0.00569170201727348,0.0139011810663167,0.32461521245969
0.81,1,-0.00377412233853165,0.0076550594602293,0.00065106153548794,-0.0173752047283344,-0.00716676330861334,0.0154016744488866,-0.0162053285317545,-0.162999359111301,0.00161748100222785,-0.0133365886410108,0.0300403861608732,0.00394197414064964,-0.0263323872595396,-0.0223141168451999,-0.000386567786695964,0.0205033519496241,0.385616626483962
0.84,1,-0.000727357809177933,0.00249743135878577,3.56049277219967e-05,-0.0189519943845943,-0.000361135695465967,0.0196844386120182,-0.0159408347829625,-0.159683014414909,0.00291960407320373,-0.00163782667521185,0.0405743583483383,0.0182093773206783,-0.0307982624795272,-0.0298674479405093,-5.08641824599953e-06,0.0184636982329783,0.428581601407921
0.87,1,0.00462864060385957,0.0116072064373709,-0.0043488876003296,-0.0195216732281462,0.000152592547379986,0.0181890316476943,-0.021434166488642,-0.159540594704021,0.00192266609698782,0.00880967640207119,0.0620390433464563,0.0178024638609984,-0.032339447208065,-0.0368917915382346,-0.00739565212968332,0.0180211798455763,0.451765495773186
0.9,1,0.0098269600512711,0.0119886878058209,-0.00921150344350515,-0.0199896237067782,0.000152592547379986,0.0181076489557583,-0.0173039948728904,-0.159601631722973,0.00296029541917173,0.021352783796706,0.0778069399090548,0.0200811792352062,-0.0289468062379833,-0.0386923835973184,-0.0116428113650929,0.0184484389782403,0.460020752586444
0.93,1,0.0145980203660187,0.0100202439446191,-0.0126651814325388,-0.0202388582008321,0.000152592547379986,0.0184128340505183,-0.010854416536963,-0.159906816817733,0.00206508580787581,0.0290993987853633,0.0621560309661143,0.0181686859747103,-0.0259712515640736,-0.0405082349111403,-0.0133671071504868,0.0186162907803583,0.471302428256071
0.96,1,0.0162561927142145,0.00120548112430189,-0.0116784162928149,-0.0204880926948861,0.000152592547379986,0.0186824142175563,-0.0101423179825231,-0.160924100466933,0.00011190120141199,0.0303964354380932,0.0298420158492793,0.0116173792738629,-0.0259865108188116,-0.0421511480045981,-0.0102389599291971,0.0189672536393323,0.478916796370332
0.99,1,0.0176803898230944,0.000152592547379986,-0.00999481185338908,-0.0205999938962981,0.000152592547379986,0.0190181178217922,-0.0136417737357707,-0.159805088452813,-0.000661234371979939,0.0231788079470199,0.0199336731060722,0.00797041739148127,-0.0308999908444472,-0.0485091708120975,-0.0102389599291971,0.0190740684224982,0.482904548275196
1.02,1,0.0187485376547543,0.000152592547379986,-0.010579749951679,-0.0206966358429721,0.000152592547379986,0.0191198461867122,-0.0128889838353628,-0.160679952391125,-1.01728364919991e-05,0.0179397971536404,0.0122531815546129,0.00118004903307189,-0.0358185572883287,-0.054475539414655,-0.010818811609241,0.0190740684224982,0.482090721355836
1.05,1,0.0196284880113122,0.000152592547379986,-0.011174860886461,-0.0207525864436781,0.000152592547379986,0.0192317473881242,-0.0130720948922188,-0.159784742779829,-0.000295012258267973,0.0164596494440545,0.00473545538702556,-0.000320444349497971,-0.0403810744549903,-0.0599332661926125,-0.011368144779809,0.0190740684224982,0.481826227607044
1.08,1,0.0203812779117201,0.000152592547379986,-0.0116377249468469,-0.0207525864436781,0.000152592547379986,0.0191452782779422,-0.0129296751813308,-0.159154026917325,0.000417086296171962,0.0145013784193447,0.000116987619657989,-0.000223802402823979,-0.0446638386181219,-0.064978993092644,-0.0119123915321309,0.0190740684224982,0.481185338908048
1.11,1,0.0209509567552721,0.000152592547379986,-0.0120802433342489,-0.0207525864436781,0.000152592547379986,0.0191198461867122,-0.0142724895982747,-0.159560940377005,-0.00076296273689993,0.0127058727785068,-0.00143945636361787,0.00205491297138381,-0.0489720348724835,-0.0698263496810816,-0.0123142185735649,0.0190740684224982,0.48274686930957
1.14,1,0.021439252906888,0.000152592547379986,-0.0124566382844529,-0.0207525864436781,0.000152592547379986,0.0191401918596962,-0.0158594520910265,-0.159683014414909,-0.0010884935046439,0.0140079958494827,0.00131738232571388,0.00142419710887987,-0.053854996388643,-0.0752230394400871,-0.0125125888851588,0.0190740684224982,0.483825189977721
1.17,1,0.021820734275338,0.000152592547379986,-0.0126804406872768,-0.0207525864436781,0.000152592547379986,0.0191859696239102,-0.0141707612333547,-0.160456149988301,-0.000681580044963937,0.0123701691742709,0.00260933256019776,-0.00134281441694388,-0.0577155878373567,-0.0794498530025127,-0.0128940702536088,0.0190740684224982,0.482955412457656
1.2,1,0.0220597959329,0.000152592547379986,-0.0129500208543148,-0.0207525864436781,0.000152592547379986,0.0190638955860062,-0.0150049338256986,-0.159154026917325,0.000152592547379986,0.0144606870733767,0.00387076428520564,-0.00338755455183569,-0.0605538092186244,-0.0825373088778344,-0.0129703665272988,0.0190740684224982,0.479588203578804
1.23,1,0.0223497217729219,0.000152592547379986,-0.0129907122002828,-0.0207525864436781,0.000152592547379986,0.0191757967874182,-0.0146183660390027,-0.159479557685069,-0.000172938220363984,0.0163274025696585,0.00514745526495153,0.000986765139723909,-0.0633259071626942,-0.0855942462436801,-0.0129703665272988,0.0190740684224982,0.479089734590696
1.26,1,0.0225633513392539,0.000152592547379986,-0.0130822677287108,-0.0207525864436781,0.000152592547379986,0.0191351054414502,-0.0138452304656107,-0.159438866339101,-0.00053916033407595,0.0229295734529659,0.00340790022481969,0.00551367737866349,-0.065106153548794,-0.0875779493596199,-0.0133671071504868,0.0190740684224982,0.475936155278176
1.29,1,0.0225633513392539,0.000152592547379986,-0.0134891811883908,-0.0207525864436781,0.000152592547379986,0.0191554511144342,-0.0143742179631947,-0.159642323068941,-0.00163782667521185,0.0236620176803898,0.00491348002563555,0.00421155430768761,-0.0664693136387219,-0.0889614551225318,-0.0134281441694388,0.0190740684224982,0.469161046174505
1.32,1,0.0223700674459059,0.000152592547379986,-0.0131331319111708,-0.0207525864436781,0.000152592547379986,0.0191045869319742,-0.0137638477736747,-0.158869187495549,-0.00114953052359589,0.0237535732088178,0.00845362712485122,0.00174972787662384,-0.0677612638732058,-0.0900601214636677,-0.0130314035462508,0.0190740684224982,0.468164108198289
1.35,1,0.022166610716066,0.000152592547379986,-0.0129805393637908,-0.0207525864436781,0.000152592547379986,0.0191249326049582,-0.0146183660390027,-0.159113335571357,-0.00127160456149988,0.0254727825759657,0.00787377544480728,0.0021464684998118,-0.0687887203588977,-0.0908536027100436,-0.0129703665272988,0.0190740684224982,0.466088849553921
1.38,1,0.022075055187638,0.000152592547379986,-0.0130110578732668,-0.0207322407706941,0.000152592547379986,0.0192164881333862,-0.0145369833470667,-0.158258817306029,-0.00159713532924385,0.0257779676707256,0.0146590573849707,0.00122074037903989,-0.0699179052095096,-0.0919014048687195,-0.0129703665272988,0.0190740684224982,0.464105146437981
1.41,1,0.021973326822718,0.000152592547379986,-0.0129398480178228,-0.0205999938962981,0.000152592547379986,0.0192164881333862,-0.0136417737357707,-0.159154026917325,-0.00114953052359589,0.0296029541917173,0.0140486871954507,0.00448622089297159,-0.0701213619393495,-0.0919624418876715,-0.0129703665272988,0.0190740684224982,0.465295368307545
1.44,1,0.021790215765862,0.000152592547379986,-0.0129907122002828,-0.0204575741854101,0.000152592547379986,0.0191656239509262,-0.0140486871954507,-0.158584348073773,-0.00245165359457177,0.0335907060965809,0.0153813287759026,0.00287891272723574,-0.0702230903042695,-0.0919217505417035,-0.0129703665272988,0.0190435499130222,0.464512059897661
1.47,1,0.02157658619953,0.000152592547379986,-0.0128482924893948,-0.0202235989460941,0.000152592547379986,0.0190435499130222,-0.0133569343139948,-0.159642323068941,-0.00314340647602771,0.0347504094566688,0.0197047842850022,0.00461846776736758,-0.0699687693919696,-0.0914639728995636,-0.0126041444135868,0.0186162907803583,0.465315713980529
1.5,1,0.021281573941262,0.000152592547379986,-0.0124210333567309,-0.0200913520716982,0.000152592547379986,0.0187790561642303,-0.0136824650817387,-0.159235409609261,-0.00359101128167567,0.0342519404685609,0.0233771782586139,0.00277718436231574,-0.0694703004038616,-0.0906908373261717,-0.0125125888851588,0.0186162907803583,0.465366578162989
1.53,1,0.0209662160100101,0.000152592547379986,-0.0125024160486668,-0.0190333770765302,0.00115970336008789,0.0103254290393791,-0.0153101189204586,-0.158543656727805,-0.00428276416313161,0.0375581123284605,0.0238146102277698,0.00442518387401959,-0.0691345967996256,-0.0899889116082237,-0.0125125888851588,0.0162358470412305,0.471144749290445
1.56,1,0.0206712037517421,0.000152592547379986,-0.0122379222998749,-0.0191249326049582,0.00394706055889564,0.0126855271055228,-0.00798567664621926,-0.160781680756045,-0.00411999877925962,0.0385041861222165,0.0343231503240048,0.00713115838089134,-0.0661844742169459,-0.086774295276752,-0.0120548112430189,0.0180873032827743,0.473016551204972
1.59,1,0.0202337717825861,0.000152592547379986,-0.0120242927335429,-0.0186875006358023,-0.00407930743329162,0.00597145502080345,-0.0155135756502986,-0.158340199997965,-0.00452691223893958,0.0389416180913724,0.0368256681010366,0.0043438011820836,-0.0663268939278339,-0.086479283018484,-0.0120548112430189,0.0177617725150304,0.477818130029196
1.62,1,0.0197759941404462,0.000152592547379986,-0.0116580706198309,-0.0172836491999064,0.00746686198512731,0.00886054058453118,-0.0138859218115787,-0.159154026917325,-0.00473036896877956,0.0405184077476323,0.0503860591448714,0.00678528194016338,-0.0635802280749942,-0.0832544938505203,-0.0114444410534989,0.0116173792738629,0.49778740806299
1.65,1,0.0183009328491063,-0.00374360382905566,-0.011363058361563,-0.0166936246833705,0.000233975239315978,0.0075991088595233,-0.0101423179825231,-0.159967853836685,-0.00599180069378745,0.0404268522192043,0.0589719331441186,0.00694804732403536,-0.0620237840917183,-0.0802535070853806,-0.0097964415417951,0.0151575263730786,0.527390362254707
1.68,1,0.0182602415031383,0.00198370311593982,-0.00816878770307525,-0.0159001434369945,0.0021769870092878,0.0118513545131789,-0.0116885891293069,-0.160415458642333,-0.00643940549943541,0.0398876918851283,0.0702841273232215,0.00122074037903989,-0.0581174148787907,-0.076326792199469,-0.010437330240791,0.0151371807000946,0.571540472629983
1.71,1,0.0162256742047385,-0.00590024516535946,-0.0098167872147791,-0.0129703665272988,0.00596128218431145,0.0065614795373394,-0.010956144901883,-0.160049236528621,-0.00770083722444329,0.0309152500991852,0.0806705933815526,-0.00195318460646382,-0.054180527156387,-0.0703553371786655,-0.00686666463209937,0.0065004425183874,0.619790236111535
1.74,1,0.0164901679535305,-0.000447604805647959,-0.00787377544480728,-0.0118615273496709,0.000152592547379986,0.00696839299701936,-0.010345774712363,-0.160700298064109,-0.0076601458784753,0.0197251299579862,0.087506739504176,-0.00492365286212755,-0.0502741579434594,-0.0666524246955779,-0.00906399731437117,0.011078218939787,0.667572049114455
1.77,1,0.0166325876644185,0.000152592547379986,-0.00937935524562314,-0.00840276294239123,0.00786360260831528,0.00398775190486363,-0.00924710837122715,-0.162246569210893,-0.00855535548977121,0.010579749951679,0.0937528611102634,-0.0137333292641987,-0.0456353445031078,-0.0622068951485743,-0.00961333048493912,0.00303150527461572,0.716666158024842
1.8,1,0.0167139703563545,0.000152592547379986,-0.00947091077405113,-0.00311288796655171,0.0149744153162226,-0.000447604805647959,-0.00570696127201147,-0.160252693258461,-0.00717184972685934,0.00363170262764367,0.102379426455479,-0.0153101189204586,-0.0388297168899604,-0.0554724773908709,-0.00961333048493912,-0.00585955381939146,0.749270098981699
1.83,1,0.0167851802117985,0.000152592547379986,-0.00950142928352713,0.0032959990234077,0.0165410321359905,-0.00680562761314737,-0.0076601458784753,-0.160171310566525,-0.00635802280749942,0.010834070863979,0.105522832931506,-0.0188400931831823,-0.0333567308572649,-0.0499994913581754,-0.00961333048493912,-0.0141300698873867,0.761121453494878
1.86,1,0.0168360443942585,0.000152592547379986,-0.00957263913897112,0.00777204707988728,0.00843328145186722,-0.010569577115187,-0.00603249203975545,-0.159194718263293,-0.00615456607765943,0.0145878475295267,0.102867722607095,-0.0333770765302489,-0.0284229051586454,-0.0451877396974598,-0.00967436750389111,-0.0126550085960468,0.7872859889523
1.89,1,0.0170496739605904,0.000152592547379986,-0.00988799707022309,0.011312194179103,0.00984730572425509,-0.011149428795231,-0.00293994974618773,-0.159235409609261,-0.00696839299701936,0.0222886847539699,0.119327372051149,-0.0190638955860062,-0.021535894853562,-0.0385347046316925,-0.0100711081270791,-0.0146081932025107,0.836430962045147
1.92,1,0.0187180191452783,0.0054017761772515,-0.010671305480107,0.0180160934273303,0.0209255246640421,-0.0180262662638223,-0.00363170262764367,-0.160578224026205,-0.00859604683573921,0.0252286345001577,0.14823857336141,-0.00615456607765943,-0.0121972309539069,-0.0308033488977732,-0.0126956999420148,-0.0301217688528092,0.896114993743706
1.95,1,0.0200506607257302,0.00349945575324768,-0.0146081932025107,0.0255745109408856,0.0202134261096021,-0.0304472996205532,-0.000579851680043947,-0.162124495172989,-0.00924710837122715,0.021637623218482,0.144606870733767,-0.00728375092827133,-0.00341807306131169,-0.0233568325856299,-0.0140792057049267,-0.0363475447859127,0.947213151443017
1.98,1,0.0204067100029501,0.000254320912299977,-0.0124922432121749,0.032156336151209,0.0189214758751183,-0.0370291248308766,0.00190232042400382,-0.162124495172989,-0.010915453555915,0.011118910285755,0.136855169326863,-0.00469985045930357,0.00580868963693147,-0.0143640451267027,-0.0120548112430189,-0.043071789707124,0.983336893826106
2.01,1,0.0207322407706941,0.000152592547379986,-0.0120242927335429,0.0376496678568885,0.00969471317687511,-0.042980234178696,0.000681580044963937,-0.162165186518957,-0.0101830093284911,-0.00150557980081586,0.119459618925545,-0.00658182521032339,0.0119836013875749,-0.00851466414380322,-0.0120548112430189,-0.0420951974038921,0.990468052206997
2.04,1,0.0210170801924701,0.000152592547379986,-0.0122887864823349,0.0419426048565121,0.0142724895982747,-0.04325490076398,0.010650959807123,-0.159520249031037,-0.00827051606799524,-0.00463881344035157,0.11220638650675,0.00148523412783186,0.021759697256386,0.000885036774803919,-0.0125125888851588,-0.0455743074841558,0.988636941638437
2.07,1,0.0208136234626301,0.000152592547379986,-0.0122887864823349,0.0500401827041434,0.0249031037324137,-0.0612709941913104,-0.0010681478316599,-0.160130619220557,-0.00879950356557919,-0.00409965310627562,0.139927365947447,0.00788394828129927,0.0303048799096652,0.00957263913897112,-0.0122074037903989,-0.0632648701437422,0.988738670003357
2.1,1,0.0207525864436781,0.000152592547379986,-0.0120853297524949,0.0561438845993428,0.0154932299773146,-0.0625324259163182,0.00702943001597135,-0.160212001912493,-0.0065207881913714,-0.00734478794722332,0.140578427482935,-0.000569678843551948,0.0337127801344849,0.0130517492192348,-0.0120548112430189,-0.0626544999542222,0.983143609932758
2.13,1,0.0207525864436781,0.000152592547379986,-0.0119836013875749,0.0624713888973663,0.0199184138513342,-0.0693583992024496,0.00707012136193935,-0.160781680756045,-0.00900296029541917,-0.0054526403597115,0.14813684499649,0.00462864060385957,0.043549913022248,0.0229194006164739,-0.0120548112430189,-0.0688904487238177,0.994669433678192
2.16,1,0.0206559444970041,0.000152592547379986,-0.0119123915321309,0.0701620532853175,0.0249794000061037,-0.0792870876186407,0.00389619637643564,-0.159154026917325,-0.00554419588813949,-0.00596128218431145,0.170313628549048,0.00842819503362122,0.0507624540950753,0.0301726330352692,-0.0120548112430189,-0.0806044699443546,1.00417086296172
2.19,1,0.0209153518275501,0.000152592547379986,-0.0120446384065269,0.0784783471175268,0.021622363963744,-0.0879543443098239,0.00418103579821162,-0.163569037954853,-0.00792463962726727,-0.00685649179560737,0.176671651356548,0.00736513362020732,0.0552334157333089,0.0343740145064648,-0.0122837000640889,-0.0881374553666799,1.01363668731752
2.22,1,0.021256141850032,0.000152592547379986,-0.0122328358816289,0.0848312835067802,0.0188756981109043,-0.0893480229092278,0.0130720948922188,-0.160578224026205,-0.00800602231920326,-0.021291746777754,0.176305429242836,0.0076448866237373,0.0644144006673381,0.04325490076398,-0.0125125888851588,-0.0898363190608437,1.02016764834539
2.25,1,0.021210364085818,0.000152592547379986,-0.0124668111209449,0.0931831822667114,0.0270343129774875,-0.101880957467371,0.0154932299773146,-0.157973977884253,-0.011098564612771,-0.0319528794213691,0.209962258776615,0.000727357809177933,0.0772576067384869,0.0560930204168828,-0.0125125888851588,-0.103203426211331,1.01468957589445
2.28,1,0.021210364085818,0.000152592547379986,-0.0126550085960468,0.103127129937641,0.0296131270282093,-0.114240953805149,0.00888088625751518,-0.162022766808069,-0.0125837987406028,-0.0514389477217933,0.24372590309356,0.00228380179245379,0.0877610604164759,0.0667032888780379,-0.0125125888851588,-0.115624459568061,1.0136010823898
2.31,1,0.021215450504064,0.000152592547379986,-0.0123549099195329,0.11200292977691,0.0291044852036093,-0.120090334788049,0.0205389568773461,-0.158482619708853,-0.0119530828780989,-0.0835647653635263,0.261772515030366,0.00745668914863531,0.100421155430769,0.0792362234361807,-0.0125125888851588,-0.120756655578275,1.0091555528428
2.34,1,0.021352783796706,0.000152592547379986,-0.0123396506647949,0.122541988382621,0.0282601397747734,-0.132755516220588,0.0100202439446191,-0.1726635537787,-0.010895107882931,-0.109978535315002,0.288079470198675,0.00864182459995321,0.117684458957691,0.0964181442711671,-0.0125125888851588,-0.134942676066368,1.00405896176031
2.37,1,0.02150028992584,0.000152592547379986,-0.0125329345581428,0.12783186335846,0.00971505884985911,-0.1265093946145,0.0188706116926583,-0.169774468214972,-0.00285856705425174,-0.124159469384849,0.308445488855658,-0.00823999755851924,0.135410626545,0.113991719311096,-0.0125125888851588,-0.125008901231931,0.997054963835566
2.4,1,0.02162745038199,0.000152592547379986,-0.0125176753034048,0.132984405041658,0.0152846868292286,-0.131117689545376,0.0182398958301543,-0.172480442721844,-0.00267545599739575,-0.136239712719097,0.365398113956114,-0.0312611265399131,0.15571560818303,0.134149194819992,-0.0126194036683248,-0.132633442182684,0.95527003794468
2.43,1,0.0241910051779738,0.00685649179560737,-0.0136570329905087,0.136443169448937,0.00816878770307525,-0.129703665272988,0.021861425621306,-0.177892391735588,0.00753807184057131,-0.144494969532355,0.388180181279946,-0.0674611651966918,0.178528194016338,0.1544185715303,-0.0160120446384065,-0.131117689545376,0.85033722952971
2.46,2,0.032868434705649,0.0256253751233456,-0.0251370789717297,0.136850082908617,-0.00566118350779748,-0.125532802311268,0.0299590034689372,-0.172989084546444,-0.00411999877925962,-0.112475966673788,0.397284869940285,-0.0581428469700207,0.202042705567593,0.169265826390372,-0.0304320403658152,-0.123605049796035,0.69436730043438
2.49,2,0.0516322316151413,0.0594500564592425,-0.0449130731121759,0.132480849635304,-0.0206610309152501,-0.111687571845658,0.0154118472853786,-0.186925870540483,-0.00859604683573921,-0.0929797255368714,0.452976063315734,0.00989816990671509,0.227662994272693,0.176086713258258,-0.043951740063682,-0.118722088279875,0.521083203629668
2.52,2,0.0827305927711824,0.101321451460311,-0.0241197953225298,0.114474929044465,-0.0721559292377494,-0.123289691864783,0.0168360443942585,-0.21378215887936,0.00778221991637928,-0.0645568203782261,0.514984588152715,0.0419985554572181,0.256335133925392,0.173670664591408,0.0204321420941801,-0.136193934954883,0.414716025269326
2.55,2,0.15533412681458,0.246192815942869,0.053748181605477,0.075696076336965,-0.15090894294056,-0.138732057659637,-0.0445875423444319,-0.292235073905657,0.0164494766075625,-0.0357371745963927,0.813252154098127,-0.0123193049918109,0.294890184230069,0.139637440107425,0.0623950926236763,-0.139632353689179,0.361944435967081
2.58,2,0.287830235704622,0.45290485346029,0.032873521123895,0.0252082888271737,-0.177755058442946,-0.119805495366273,-0.0566525264239428,-0.305907366150904,0.00403861608732363,0.0732800276701153,1.27696564633117,0.0429395428327281,0.359096041749321,0.0713471887366354,0.0319884843490911,-0.119617297891171,0.328231655832596
2.61,2,0.439807326476842,0.527873571988077,0.000376394950203965,-0.0350657673879208,-0.214346751304666,-0.0767693105868709,-0.0484735658843755,-0.261858984140548,-0.0204168828394421,0.0782901496424248,1.39204585914691,0.147897783338928,0.441902930794193,0.0022227647735018,-0.00283822138126774,-0.076535335347555,0.188568783633941
2.64,2,0.585278888312428,0.502171900591042,-0.0261899675486516,-0.111092460910876,-0.265719575589262,-0.0306405835139012,0.00202439446190781,-0.159967853836685,-0.0201116977446821,0.0827458520259204,0.97280292163864,0.261553799045788,0.513641773735771,-0.0714082257555874,-0.0308440402437412,0.0640227464623961,0.0476749982197536
2.67,2,0.704260383922849,0.4132867417422,-0.032278410189113,-0.186483352153081,-0.216666158024842,0.0741548916084272,-0.0114851323994669,-0.0856247647531561,-0.00479140598773156,0.138762576169113,0.423052664774519,0.179311502426221,0.554694255399233,-0.149337239702546,-0.0372224087242246,0.160125532802311,0.010981576993113
2.7,2,0.782804854477574,0.277662485630868,-0.0295826085187333,-0.177500737530646,0.122150334177679,0.086682739748324,-0.021800388602354,-0.0529089225948871,-0.00888088625751518,0.0996632791121148,-0.0723136082033753,0.0907467879268777,0.564480524104536,-0.21808018229723,-0.0306761884416232,0.102989796644999,0.00351471500798568
2.73,2,0.820073040966013,0.138019959105197,-0.0512507502466913,-0.0993784396903389,0.307265439822586,0.0381023590807825,-0.0450961841690318,-0.0258695231991536,-0.00696839299701936,0.0537227495142471,-0.641346476638081,-0.076306446526485,0.541591641997538,-0.278252510147404,-0.0731070894497513,0.00618508458713543,0.00201422162541581
2.76,2,0.776284066286203,-0.142084007283751,-0.115888953316853,-0.00669881282998138,0.319676300342825,-0.00598162785729545,-0.237505213578702,0.135390280872016,-0.0125024160486668,0.0522375153864152,-1.63842178614663,-0.0464288257494837,0.476424451429792,-0.299620553198848,-0.120278532263151,-0.0821863460188604,0.00169377727591784
2.79,2,0.660430717897071,-0.387269712413912,-0.0553249712617369,0.0492568742942595,0.147765536464532,-0.0475478377636036,-0.133966083763136,-0.144118574582151,0.00808740501113926,0.0593025503301085,-2.52371288186285,-0.299269590339874,0.34400463881344,-0.316176844589577,-0.0578325754570147,-0.0641753390097761,0.00167851802117985
2.82,2,0.507858516190069,-0.511917477950377,-0.0147353536586606,0.0486668497777235,-0.0292977690969573,-0.0273649301634775,-0.0568152918078148,-0.250038148136845,0.00843328145186722,-0.0362915941852067,-2.97235023041475,-0.216828923408714,0.178772342092146,-0.328857285276854,-0.00926236762596515,-0.0141860204880927,0.00167851802117985
2.85,2,0.350001525925474,-0.528977324747459,0.0189418215481023,0.0314137190872931,-0.0513423057751193,0.00279753003529974,0.121392457859025,-0.464420504369233,-0.00373343099256366,-0.0465000356049277,-2.6978972746971,-0.170842616046632,0.00285348063600574,-0.346990366323842,0.021596931872514,0.00309762871181372,0.00167851802117985
2.88,2,0.203258359528387,-0.488077435631377,0.0391145563117364,0.0262357453128656,-0.00638854131697541,-0.0022278511917478,0.0953093050935392,-0.378398998992889,-0.0155746126692506,0.0269427574490595,-2.2492700989817,0.139174576047039,-0.143838821578621,-0.347015798415072,0.04328033285521,-0.00608844264046144,0.00167851802117985
2.91,2,0.0923897010203355,-0.37402467930133,0.0412610248115482,0.0244504125085198,-0.00687683746859137,-0.00522883795688752,0.0993377483443709,-0.287392803735466,-0.00743634347565132,0.0138350576291187,-1.69207841222368,0.470829391359193,-0.260963774529252,-0.35326192002116,0.0452538631346578,-0.00689209672332937,0.00146997487309386
2.94,2,0.0198675496688742,-0.245211137221391,0.0368917915382346,0.0228787092705059,-0.00065106153548794,-0.00573747978148747,0.0791141493982767,-0.215267393007192,0.00367239397361166,0.00196844386120182,-1.19935199031546,0.679265724662008,-0.345845922218492,-0.36563208919543,0.0378989023509425,-0.00728375092827133,0.00152592547379986
2.97,2,-0.0177515996785384,-0.128218431145156,0.0272632017985575,0.0224972279020559,0.000152592547379986,-0.0065309610278634,0.0847499008148442,-0.190791548407442,0.00342824589780368,0.0142979216895047,-0.772769351278217,0.683172093874935,-0.403785312458673,-0.385835342468541,0.0253761406292917,-0.0076296273689993,0.00164291309345785
3,2,-0.0374411247088026,-0.06513667205827,0.0189519943845943,0.021993672495702,-0.000162765383871985,-0.00700908434298736,0.0772220018107649,-0.17246009704886,0.010345774712363,0.0518967253639332,-0.466912849309773,0.485447757398195,-0.439827672149826,-0.402183090711183,0.0174260689107944,-0.0076296273689993,0.00167851802117985
3.03,2,-0.0503402813806574,-0.0401369263791823,0.0157373780531226,0.0193029572435682,-0.00736004720196132,-0.00351980142623168,0.0731935585599333,-0.153152053387046,0.0153101189204586,0.087455875321716,-0.207820876695049,0.15095980712302,-0.441551967935219,-0.390967538478754,0.0153864151941486,-0.00451673940244758,0.00167851802117985
3.06,2,-0.0572934151229387,-0.0210781172114221,0.0136773786634927,0.0188960437838883,0.000147506129133986,-0.00399792474135563,0.0719728181808934,-0.144505142368847,0.011342712688579,0.0924863429670095,0.0396537166458123,-0.0920794295073295,-0.367849767550686,-0.310357982116153,0.0135603910438348,-0.00625629444257942,0.00167851802117985
3.09,2,-0.0586820073040966,-0.00292469049144973,0.0120344655700349,0.0163680939156265,-0.00768049155145929,-0.00243130792158778,0.0524409721162552,-0.147455264951526,0.0033061718598997,0.0786614581743828,0.217052725811538,-0.121697642953785,-0.271955524358857,-0.213075146743166,0.010808638772749,-0.00347911008026368,0.00167851802117985
3.12,2,-0.0590126244900866,7.12098554439934e-05,0.010467848750267,0.0161748100222785,0.000132246874395988,-0.00340790022481969,0.0371817173782566,-0.152277189448734,-0.00200404878892382,0.0495925778984954,0.363007497380495,-0.0259610787275816,-0.184809920550147,-0.125573493657236,0.010376293221839,-0.00518814661091952,0.00167851802117985
3.15,2,-0.0592059083834345,0.000152592547379986,0.010447503077283,0.0159815261289305,0.000152592547379986,-0.00420138147119561,0.000640888698995941,-0.163304544206061,0.00503555406353954,0.0136112552262947,0.448713644825587,0.0727866451002533,-0.114576657409385,-0.0551978108055869,0.010376293221839,-0.00518814661091952,0.00167851802117985
3.18,2,-0.0595721304971465,0.000152592547379986,0.0102643920204271,0.0149845881527146,-0.00454725791192358,-0.00455743074841558,-0.34995574816126,-0.148940499079358,0.0487380596331675,-0.150568152918078,0.170308542130802,0.0660522273425499,-0.086896369314656,-0.0271156956694235,0.010376293221839,-0.00453708507543158,0.0257067578152816
3.21,2,-0.0588905504521826,0.00476088747825556,0.0102440463474431,-0.000223802402823979,-0.0602130191961425,0.00514745526495153,-0.0319935707673371,-0.172134566281116,0.011220638650675,-0.0742413607186092,0.231869462162135,0.250099185155797,-0.0731833857234413,-0.0140893785414187,0.00968454034038311,0.0134688355154068,0.123518580685853
3.24,2,-0.0597857600634785,-0.00244148075807978,0.0172022665079704,-0.0353912981556647,-0.116916409802545,0.0398470005391603,-0.0678833379111097,-0.147923215430158,-0.0139673045035147,-0.0643330179754021,0.240465508997874,0.316894029562263,-0.0675272886338898,-0.00751772616758731,0.0278227078056174,0.0630614134139022,0.226955982136499
3.27,2,-0.0531225521612191,0.0241503138320058,0.0300098676513972,-0.0562252672912788,-0.0453098137353638,0.0528275399029511,-0.0449741101311279,-0.194636880601418,-0.0236111534979298,-0.0859401226844081,0.330545976134526,0.203283791619617,-0.0588396862697226,-0.00549333170567949,0.0224616229743339,0.0493077384767195,0.336100344859157
3.3,2,-0.0508743552964873,0.00919624418876715,0.0205491297138381,-0.0715760775577054,-0.0535294656208991,0.0492365286212755,-0.0519323302916552,-0.150446078880174,-0.0114851323994669,-0.0363373719494207,0.294239122694581,0.0189113030386263,-0.0446994435458439,0.00622577593310343,0.0246284371471297,0.0517695649077832,0.45911028372041
3.33,2,-0.0513524786116113,0.00053916033407595,0.0302845342366812,-0.087038789025544,-0.0410880865911842,0.0555131687368389,-0.0460320851262958,-0.168431653798029,-0.011240984323659,-0.0615965249590543,0.309579760124516,0.0732037313964253,-0.0362966806034527,0.0151066621906186,0.0309152500991852,0.0556250699382509,0.56521296833196
3.36,2,-0.0517492192347992,0.000152592547379986,0.0315256202887051,-0.0987477238278349,-0.0376191493474125,0.054322946867275,-0.0518509475997192,-0.154311756747134,-0.0101830093284911,-0.0377819147312845,0.298145491907509,0.0643533636483861,-0.0316782128360851,0.0201320434176662,0.0314849289427371,0.0549027985473189,0.656076743878496
3.39,2,-0.0521764783674632,0.000152592547379986,0.0320139164403211,-0.110548214158554,-0.0355744092125207,0.0582903530991546,-0.0464389985859757,-0.153009633676158,-0.00721254107282734,-0.0169377727591784,0.296416109703869,0.0428785058137761,-0.0493077384767195,0.00299081392864772,0.0318918424024171,0.0592974639118625,0.738934497105828
3.42,2,-0.054546749270099,-0.00617491175064343,0.0337738171534369,-0.118391471093885,-0.021739351583402,0.0556555884477269,-0.0416374197617522,-0.154311756747134,-0.00753807184057131,0.011129083122247,0.300281787570828,0.0779849645476648,-0.0585853653574226,-0.00379446801151565,0.0357575202693767,0.0556962797936949,0.846990366323842
3.45,2,-0.0558386995045829,-0.0021973326822718,0.0371206803593046,-0.1265093946145,-0.0260322885830256,0.0581987975707266,-0.043997517827896,-0.166559851883501,-0.0179143650624104,0.0160120446384065,0.292601296019369,-0.00601214636677145,-0.0589007232886746,-0.00285856705425174,0.0358083844518367,0.0586972665588346,0.982879116183966
3.48,2,-0.0563371684926908,-0.00011190120141199,0.0346181625822728,-0.13073112175868,-0.00692770165105136,0.0525630461541592,-0.0251167332987457,-0.175634022034364,-0.00985747856074709,0.00847397279783522,0.271513005971455,-0.00479140598773156,-0.0423291726432081,0.0140690328684347,0.0343333231604968,0.0530920336517431,1.09626555172379
3.51,2,-0.0592059083834345,-0.0076499730419833,0.0387991983804844,-0.127496159754224,0.0149540696432386,0.043142999562568,-0.0299996948149052,-0.165868099002045,-0.0144149093091627,-0.00372325815607166,0.253140863266905,0.00615456607765943,-0.0310678426465651,0.0281991027558214,0.0399487289040803,0.0396231981363364,1.13703828038372
3.54,2,-0.0596636860255745,-0.000518814661091952,0.0374563839635406,-0.117943866288237,0.0378734702597125,0.032085126295765,-0.0289824111657053,-0.159479557685069,-0.0129500208543148,-0.0162053285317545,0.26029236732078,0.00713115838089134,-0.0345164342173528,0.0252184616636657,0.0370189519943846,0.0250150049338257,1.12773013499354
3.57,2,-0.0600400809757785,0.000152592547379986,0.0367239397361166,-0.103732413708914,0.0460524307992798,0.0200099693797622,-0.0349233476770328,-0.153864151941486,-0.0129500208543148,-0.0181686859747103,0.25744397310302,0.00814844203009125,-0.0391857661671804,0.0209255246640421,0.0367748039185766,0.0117292804752749,1.10048727886797
3.6,2,-0.0603249203975545,0.000152592547379986,0.0366323842076886,-0.0943937498092593,0.0263578193507696,0.0172022665079704,-0.0273954486729535,-0.15500350962859,-0.0135196996978668,-0.0233466597491379,0.253181554612873,0.0117496261482589,-0.0453911964272998,0.0149947609892066,0.0367748039185766,0.0196437472660502,1.0776899522894
3.63,2,-0.0605385499638864,0.000152592547379986,0.0366730755536566,-0.0833155308694723,0.0419629505294961,0.0165308592994985,-0.0197047842850022,-0.156305632699566,-0.0118106631672109,-0.0248725852229377,0.266101056957712,0.0125227617216508,-0.0425529750460321,0.0180669576097903,0.0369579149754326,0.010478021586759,1.06873785617644
3.66,2,-0.0607725252032024,0.000152592547379986,0.0372529272337006,-0.0689209672332936,0.0420341603849401,0.000640888698995941,-0.0280872015544094,-0.159194718263293,-0.010793379518011,-0.0204067100029501,0.280363373719494,0.00703960285246335,-0.0399283832310963,0.0209255246640421,0.0372325815607166,0.0011393576871039,1.06956185593229
3.69,2,-0.0608844264046144,0.000152592547379986,0.0371308531957966,-0.0625120802433343,0.0131331319111708,0.00720236823633534,-0.0236925361898658,-0.159642323068941,-0.010996836247851,-0.0198777225053662,0.284727520574562,-0.00237027090263578,-0.0395214697714164,0.021454512161626,0.0372325815607166,0.0145268105105747,1.07788323618274
3.72,2,-0.0608844264046144,0.000152592547379986,0.0371105075228126,-0.0502538122704754,0.0445061596524959,0.00334686320586769,-0.00717184972685934,-0.159154026917325,-0.00859604683573921,-0.0156763410341706,0.311746574297311,-0.00485244300668355,-0.0277820164596494,0.0331939654733929,0.0372325815607166,-0.0010478021586759,1.08234911140273
3.75,2,-0.0595517848241625,0.00427259132663961,0.0361542608925647,-0.0281991027558214,0.0709962258776615,-0.011352885525071,-0.0201930804366181,-0.163223161514125,-0.0134790083518988,-0.0177312540055544,0.379599393698945,-0.011332539852087,-0.00785342977182328,0.0517695649077832,0.0355947548855047,-0.0264188563697216,1.08348846908984
3.78,2,-0.0494196396781315,0.032919298888109,0.0244860174362417,-0.00838241726940723,0.0562659586372468,-0.0234178696045818,-0.0275175227108575,-0.164036988433485,-0.011240984323659,-0.0288806828007853,0.461684011352886,-0.0266019674265776,0.0174464145837784,0.0670898566647338,0.0165918963184505,-0.0273242388175095,1.08998891160822
3.81,2,-0.0354319895016327,0.043600777204708,0.00305185094759972,0.0102440463474431,0.0627969196651102,-0.0280770287179174,-0.00945056510106713,-0.166071555731885,-0.0119734285510829,-0.0373241370891446,0.563249610889004,-0.011088391776279,0.0479750968962676,0.0836207159642323,-0.000335703604235969,-0.0342621133050528,1.0924405652028
3.84,2,-0.0250455234433017,0.0228176722515539,0.00443535671051159,0.0393892228970204,0.0933968118330434,-0.0603961302529984,0.0167139703563545,-0.155044200974558,-0.0132348602760908,-0.0572120324310027,0.577654347361675,0.0097760958688111,0.0841700491348003,0.109429202144434,0.00590024516535946,-0.0670593381552578,1.0771711376283
3.87,2,0.00423189998067161,0.0796227912228767,-0.0168767357402264,0.0645059561957661,0.0747805210526851,-0.0719117811619414,-0.00660217088330739,-0.174779503769036,-0.0122582679728589,-0.087008270516068,0.482863856929228,-0.0292163864050213,0.114393546352529,0.110314238919238,-0.0362865077669607,-0.0750348419649851,1.04718161564989
3.9,2,0.02223782057151,0.0454318877732678,-0.0451267026785078,0.0821558275093845,0.0428174687948241,-0.0749432864365571,0.0355133721935687,-0.16900133264158,-0.00521866512039552,-0.087282937101352,0.306944995473088,-0.00181076489557583,0.139774773400067,0.117618335520493,-0.0407727286599322,-0.0787581001210567,0.933612069053214
3.93,2,0.0265307575711336,0.00376394950203965,-0.0222988575904619,0.086448764509008,-0.00021362956633198,-0.0640888698995941,0.0211493270668661,-0.179703156631163,-0.00334686320586769,-0.065523239844966,0.0500808740501114,-0.00249234494053977,0.148757388022502,0.122297840306813,-0.0183009328491063,-0.0658996347951699,0.696584978789636
3.96,2,0.0249743135878577,-0.0102949105299031,-0.0149947609892066,0.0780358287301248,-0.0416679382712282,-0.0474969735811436,-0.00599180069378745,-0.202490310373241,-0.00228888821069979,-0.00639871415346741,-0.0671000295012258,0.0200201422162542,0.148116499323506,0.123243914100569,-0.011098564612771,-0.0440076906643879,0.348979155858028
3.99,3,0.0189621672210863,-0.0163070568966745,-0.00732444227423933,0.0535294656208991,-0.0920946887620675,-0.0166529333374025,0.00849431847081922,-0.279112114830978,0.00584938098289946,-0.0251981159906817,-0.0627664011556342,-0.0232245857112339,0.142226426994639,0.123355815301981,-0.00392671488591164,0.00367239397361166,0.086947233497116
4.02,3,0.00622577593310343,-0.0336720887885169,0.00636819564399141,0.032247891679637,-0.0521968240404472,0.00855535548977121,0.00890123193049918,-0.242286446729942,-0.000335703604235969,-0.0447299620553199,0.0449741101311279,-0.0288399914548173,0.143243710643839,0.137119663075655,0.0119937742240669,0.00753807184057131,0.0191757967874182
4.05,3,0.00351980142623168,-0.00312814722128971,0.00718202256335134,0.0271258685059155,-0.00410982594276762,-0.00317392498550371,0.00196335744295582,-0.2216152429782,-0.000885036774803919,0.0350199896237068,0.116560360525325,-0.107771029796238,0.147384055096082,0.143915117852311,0.0022176783552558,-0.0148269091870886,0.00515762810144353
4.08,3,0.00103254290393791,-0.00459303567613758,0.000803654082867926,0.0225582649210079,-0.0144861191646067,-0.00846379996134322,-0.0243639433983378,-0.21897030549028,0.0054424675232195,-0.00962350332143111,0.136260058392081,-0.145522426018047,0.155608793399864,0.154652546769616,0.00173955504013184,-0.00878424431084119,0.00235501164789778
4.11,3,0.00231432030192979,0.00342824589780368,0.000640888698995941,0.0167851802117985,-0.0157678965625985,-0.000228888821069979,-0.0251777703176977,-0.212052776675721,-0.00635802280749942,-0.000559506007059949,0.184464044109419,-0.158177434614093,0.164794864752139,0.162556840723899,0.0311950031027151,0.0364136682231107,0.00175990071311584
4.14,3,0.0427157404299041,0.135507268491674,0.119525742362743,0.0333669036937569,0.107470931119724,0.0938952808211514,0.0577308470920947,-0.21998758913948,-0.010427157404299,0.0224768822290719,0.47608366140731,-0.097608366140731,0.181595304218675,0.138955860062461,0.124764753156123,0.123854284290089,0.00167851802117985
4.17,3,0.165028839991455,0.411267433698538,0.0401928769798883,0.11375774407178,0.308155563015636,0.0183111056855983,0.0587074393953266,-0.292723370057273,-0.00999989827163508,-0.0286721396526994,1.47152114424065,0.0603096611428165,0.245221310057883,0.0803043712678406,0.0355031993570767,0.00283822138126774,0.00167851802117985
4.2,3,0.297199418113753,0.460463270973846,0.0174311553290404,0.192856634215318,0.250409456668803,-0.0193843399355042,-0.0317290770185451,-0.253639332255013,-0.0116275521103549,0.0273293252357555,1.40877000233975,0.26080100914538,0.332916247037161,0.0357931251970987,0.0100812809635711,-0.0303506576738792,0.00167851802117985
4.23,3,0.425524664042075,0.447711620431125,0.00498977629932554,0.234845016836044,0.120161544643493,-0.0150100202439446,-0.0368561866105126,-0.213639739168472,0.000356049277219967,0.0428174687948241,1.30598874884284,0.0380362356435845,0.414248074790694,-0.011068046103295,0.00355031993570767,-0.00878424431084119,0.00165308592994985
4.26,3,0.540767642241686,0.401043733024079,0.00125125888851588,0.249794000061037,0.043061616870632,0.0043590604368216,-0.043529567349264,-0.180516983550523,0.00635802280749942,-0.0268969796848455,1.14317250078839,-0.159494816939807,0.487756991281879,-0.0528021078117211,0.00619017100538143,0.0127923418886888,0.00152592547379986
4.29,3,0.648436943673004,0.364111250139876,0.0043692332733136,0.253557949563077,0.010493280841497,0.0119632557145909,-0.100029501225827,-0.0841395306253243,0.00794498530025127,-0.0626748456272062,0.739875484481338,-0.148157190669474,0.54483169042024,-0.10340688294117,0.00713115838089134,0.0233517461673838,0.00159204891099785
4.32,3,0.754417554246651,0.357692190313425,-0.00412508519750562,0.255907874792728,0.0159408347829625,0.0202235989460941,-0.0300403861608732,-0.15235857214067,0.0177719453515224,-0.127012950020854,0.493423261207923,-0.0847804193243202,0.579577013458663,-0.17464725689464,-0.00562557858007548,0.0223242896816919,0.00167851802117985
4.35,3,0.842432935575426,0.299727367982014,-0.00394706055889564,0.261523280536312,0.0232042400382499,0.0192571794793542,-0.0696127201147496,-0.115695669423505,0.0224717958108259,-0.191066214992726,0.218329416791284,-0.0565762301502528,0.601570685954365,-0.2406231879635,-0.00283313496302174,0.0151270078636026,0.00167851802117985
4.38,3,0.919085258542639,0.261396120080162,-0.00503555406353954,0.264366588335826,0.0086723431094292,0.0171514023255104,-0.0665608691671499,-0.121717988626769,0.0334177678762169,-0.29996134322133,-0.125578580075482,-0.129398480178228,0.603528956979074,-0.315317239906003,-0.00578834396394747,0.0184382661417483,0.00167851802117985
4.41,3,0.98188217820775,0.213665171259702,-0.00685649179560737,0.263364563941364,0.000157678965625985,0.0195369324828842,-0.0581581062247587,-0.0935188858709474,0.010610268461155,-0.45198929817601,-0.520055747143976,-0.211447492904447,0.583498641926328,-0.398124128950875,-0.00674967701244138,0.0225226599932859,0.00167851802117985
4.44,3,1.02478102969451,0.1498407951089,-0.00124617247026989,0.262611774040956,0.000152592547379986,0.0218054750206,-0.0233263140761539,-0.0990122175766269,-0.0139469588305307,-0.528117720063885,-0.88853114413892,-0.197541225419884,0.540386160873236,-0.484165980000203,0.000620543026011943,0.0230414746543779,0.00167851802117985
4.47,3,1.04954171371604,0.0947701447594633,0.00658182521032339,0.262871181371502,0.00533056632180751,0.0230821660003459,0.0442416659037039,-0.141758476516007,-0.0345367798903368,-0.531281472212897,-1.1533351644439,-0.134352651549832,0.477116204311248,-0.572186447747225,0.010966317738375,0.021922462640258,0.00167851802117985
4.5,3,1.04943998535112,0.0144708599098687,0.0127770826339508,0.26418347727897,0.00280770287179174,0.0139266131575467,0.107292906481114,-0.141127760653503,-0.0574866990162867,-0.402462843714713,-1.20419426048565,-0.0958738975188452,0.407050792972605,-0.642175562812179,0.0032756533504237,-0.0209051789910581,0.00167851802117985
4.53,3,1.02967416404716,-0.0553910946989349,-0.00509659108249153,0.25830866420484,-0.032527644683167,-0.0246131778923917,0.0886969613737398,-0.0972014526810511,-0.0684123254086937,-0.267433698538163,-1.29516485081535,-0.0457879370504878,0.333058666748049,-0.69637643564155,-0.00274666585283975,-0.0495213680430514,0.00167851802117985
4.56,3,0.992634866379793,-0.116153447065645,0.00955229346598712,0.231411684519995,-0.109276609597054,-0.0198726360871202,0.131911170791752,-0.101718192083499,-0.06503494369335,-0.127338480788598,-1.33854182561724,-0.0661743013804539,0.252667826370027,-0.739722891933958,0.0141707612333547,-0.00789920753603727,0.00167851802117985
4.59,3,0.947996459852901,-0.144586525060783,0.021815647857092,0.203202408927681,-0.0880560726747439,0.00611387473169144,0.180069378744875,-0.097893205562507,-0.0617999816888943,-0.00783817051708528,-1.20264798933887,-0.0833511357971943,0.17586799727368,-0.771889400921659,0.0246996470025737,0.00626138086082542,0.00167851802117985
4.62,3,0.900652078819137,-0.154067608671326,0.0303608305103712,0.193594164860988,-0.0246640420748517,-0.00301624601987772,0.417238888719342,-0.11012095502589,-0.0533565274005351,0.120822779015473,-0.420611184016439,0.0398164820296843,0.120466729738253,-0.779971719514552,0.032492039755445,-0.0117954039124729,0.00167851802117985
4.65,3,0.879950356557919,-0.0733003733430993,0.0248674988046917,0.183146661783705,-0.0384838404492325,-0.00318918424024171,0.189265622933643,-0.00859604683573921,-0.0197861669769382,0.216778059226254,0.606957202876878,0.011159601631723,0.138589637948749,-0.741121656951608,0.021963153986226,-0.00334177678762169,0.00167851802117985
4.68,3,0.88947213151443,0.0201015249081902,0.00535599841303751,0.179296243171483,-0.00810266426587725,-0.00298572751040173,0.00269580167037975,-0.0412508519750562,-0.0129703665272988,0.237830744346446,0.3478703166804,-0.0943327127903073,0.166498814864549,-0.722749514247057,0.00010681478316599,-0.00993886125268309,0.00167851802117985
4.71,3,0.886583045950702,-0.00573239336324147,0.000473036896877956,0.177780490534176,-0.00635293638925342,-0.00694804732403536,0.0861130609047721,-0.147556993316446,-0.00991851557969909,0.223919390443637,0.371491643014822,0.0674001281777398,0.187144586525061,-0.699179052095096,0.00231940672017579,-0.0102898241116571,0.00167851802117985
4.74,3,0.87013356934314,-0.0471002329579557,0.0100049846898811,0.178736737164424,0.000152592547379986,-0.0100456760358491,-0.144891710155543,-0.334086123233741,0.229000722271391,-0.0627053641366822,0.293455814284697,0.114098534094262,0.228141117587817,-0.641768649352499,0.0136265144810327,-0.0135349589526048,0.00533565274005351
4.77,3,0.859726757611825,-0.0339162368643249,0.0137689341919207,0.182317575609607,0.00390636921292764,-0.0139011810663167,-0.0850143945636362,-0.373800876898506,-0.0152694275744906,0.0709962258776615,0.229255043183691,-0.180923897010203,0.240404471978922,-0.619083223975341,0.0134281441694388,-0.0178431552069664,0.0487329732149215
4.8,3,0.868648335215308,0.0188451796014283,0.0065004425183874,0.179804884996083,-0.0164036988433485,-0.0132958972950428,0.121250038148137,-0.0616982533239743,-0.0409863582262642,0.076077557705415,0.280246386099836,0.328272347178564,0.236823633533738,-0.631575467187516,0.00239061657561978,-0.00851975056204922,0.0170242418693604
4.83,3,0.883515935748365,0.0374512975452946,-0.00188197475101983,0.178823206274606,-0.00144454278186387,-0.011017181920835,-0.0021871598457798,-0.158360545670949,0.0384634947762485,0.011042614012065,0.265551723787144,0.00638854131697541,0.253634245836767,-0.629647714672282,-0.00338755455183569,-0.0114393546352529,0.0174311553290404
4.86,3,0.901369263791823,0.0504369233273314,-0.00520849228390352,0.185389772230191,0.0206915494247261,-0.0151727856278166,0.0412915433210242,-0.171300393688772,-0.0338857183548489,-0.0287586087628814,0.310200303150527,-0.0132450331125828,0.270933154291411,-0.630176702169866,-0.00733461511073133,-0.0237179682810958,0.0725068920967233
4.89,3,0.927701651051363,0.0786767174291208,-0.0115868607643869,0.193889177119256,0.0225480920845159,-0.0236314991709138,0.0363475447859127,-0.157851903846349,0.0285144606870734,-0.00457777642139958,0.340352590512813,-0.0702536088137455,0.290490432447279,-0.636992502619505,-0.0159459212012085,-0.0293842382071393,0.100904365164139
4.92,3,0.951673940244758,0.0741396323536892,-0.0177261675873084,0.204529964089887,0.0349335205135248,-0.0319427065848771,0.0560421562344228,-0.134718873663544,0.0134179713329468,0.0362610756757307,0.366461175369528,-0.00255338195949177,0.311960203863643,-0.639459415468815,-0.0184738710694703,-0.0382346059551785,0.118503372295297
4.95,3,0.966297392702007,0.0443739127780999,-0.0466373688975697,0.223451439965005,0.064963733837906,-0.0466119368063397,0.0536006754763431,-0.129937640512304,-0.00424207281716361,0.04350922167628,0.362915941852067,0.00610370189519944,0.334025086214789,-0.632063763339132,-0.0607470931119724,-0.0494196396781315,0.131433047476628
4.98,3,0.964766380809961,-0.010945972065391,-0.0751874345123651,0.244585507777134,0.0676290169988098,-0.0628223517563402,0.0642211167739901,-0.167088839381085,0.0117496261482589,0.0248573259681997,0.307301044750308,-0.0182653279213843,0.353734956918037,-0.61078218939787,-0.0752942492955311,-0.06495864741966,0.180547502059999
5.01,3,0.968016602069155,0.000274666585283975,-0.0997751803135268,0.263191625721,0.0557369711396629,-0.0751569160028891,0.0567135634428948,-0.155288349050366,0.000356049277219967,0.0238756472467218,0.27856278166041,-0.00585955381939146,0.370810062969858,-0.596982736696473,-0.100639871415347,-0.0784936063722648,0.239977212846258
5.04,3,0.95939003672394,-0.0374462111270486,-0.164510025330363,0.274915819778029,0.0273751029999695,-0.086794640949736,0.0672933133945738,-0.119886878058209,-0.00228888821069979,0.0185552537614063,0.159179459008555,0.0137384156824447,0.382574948372855,-0.576576026693523,-0.170644245735038,-0.0916369111199276,0.28403068127486
5.07,3,0.928149255857011,-0.114017151402326,-0.21256141850032,0.277932065797906,0.000915555284279916,-0.0986154769534389,0.0672933133945738,-0.131199072237312,-0.000172938220363984,0.0257881405072176,0.0064699240089114,0.0178024638609984,0.400972523168635,-0.526963103122044,-0.216722108625548,-0.100171920936715,0.3524480931018
5.1,3,0.879492578915779,-0.177048046306752,-0.238146102277698,0.279539373963642,0.000152592547379986,-0.107567573066398,0.0848719748527482,-0.14686524043499,0.00914538000630716,0.0503860591448714,-0.160903754793949,0.00767031871496729,0.440656758323923,-0.438612018189032,-0.23973306477045,-0.10945972065391,0.422538936531673
5.13,3,0.827458520259204,-0.188156783756015,-0.232184820093387,0.279620756655578,-0.00821965188553524,-0.113956114383374,0.0576494644001587,-0.139174576047039,-0.0010681478316599,0.0646890672526221,-0.238380077517014,0.0342214219590848,0.447197892188279,-0.379996134322133,-0.261085848567156,-0.118991668446913,0.487268695130263
5.16,3,0.756482640054526,-0.254565060375785,-0.240841903948078,0.274107079276915,-0.0233873510951059,-0.121880754010641,0.0665608691671499,-0.163182470168157,0.0127669097974588,0.0748212123986531,-0.398225857315795,0.0357778659423607,0.447167373678803,-0.309071118299916,-0.270109154535559,-0.125329345581428,0.540920234789066
5.19,3,0.683980834376049,-0.261126539913124,-0.24085207678457,0.259010589922788,-0.0688090660318817,-0.116865545620085,0.0278227078056174,-0.170547603788364,-0.00139367859940387,0.0821151361634165,-0.454044211147394,0.0586972665588346,0.415326395458846,-0.268430636514379,-0.274208807641835,-0.125878678751996,0.587237159337138
5.22,3,0.602679525131993,-0.289559617908261,-0.242866298409986,0.227169611702831,-0.117893002105777,-0.113549200923694,0.053987243263039,-0.155898719239886,0.00210577715384381,0.0487075411236915,-0.556535538804285,-0.00825017039501124,0.381613615324361,-0.220842107404808,-0.274208807641835,-0.111178930021058,0.617542039246803
5.25,3,0.511429181798761,-0.321654917040518,-0.236457411420026,0.19418927579577,-0.110538041322062,-0.101657155064547,0.0458489740694398,-0.160700298064109,0.00287891272723574,0.0255948566138696,-0.635039318013041,-0.0136621194087547,0.342549923195084,-0.168665629037344,-0.274208807641835,-0.0995615507471948,0.634327219458602
5.28,3,0.406771039969075,-0.364981027659942,-0.211554307687613,0.161056347341329,-0.117608162684001,-0.0833969135614083,0.0385245317952005,-0.149957782728558,0.00149540696432386,0.010986663411359,-0.755882442701498,-0.0209560431735181,0.293008209479049,-0.113518682414218,-0.249987283954385,-0.0821558275093845,0.640227464623961
5.31,3,0.290383617664113,-0.404227830846075,-0.141575365459151,0.123620309050773,-0.132134973194576,-0.0613523768832464,0.0359609769992167,-0.167129530727053,-0.00086469110181992,0.00464898627684357,-0.884853663747063,-0.043275246436964,0.241879533270262,-0.0482395906450596,-0.120853297524949,-0.0594500564592425,0.635527614164658
5.34,3,0.19403668324839,-0.333445234534745,-0.0174871059297464,0.0807621489099806,-0.145573290200507,-0.0421969257688121,-0.0498163803013194,-0.183365377768283,0.0123193049918109,0.054607786289051,-0.697398805708996,-0.0408642841883602,0.191269671722566,-0.00263476465142776,0.000895209611295918,-0.0318104597104811,0.588396862697226
5.37,3,0.151270078636026,-0.149123610136214,0.0303659169286172,0.0433566291289,-0.113284707174902,-0.0279346090070294,-0.0258084861802016,-0.167699209570605,-0.0231228573463139,0.02147485783461,-0.263761304564552,0.0298572751040173,0.162541581469161,0.011352885525071,0.0387788527075004,-0.00893175043997518,0.465234331288593
5.4,1,0.156346324045534,0.0227769809055859,0.0224514501378419,0.0271919919431135,-0.0319427065848771,-0.0154118472853786,-0.00774152857041129,-0.145563117364015,0.00169886369416384,-0.0133060701315348,0.102003031505275,0.0592160812199265,0.141666920987579,-0.0144149093091627,0.00935900957263914,-0.00355031993570767,0.375642160303557
5.43,1,0.170751060518204,0.0636209194209621,-0.0133772799869788,0.0358897671437727,0.0498163803013194,-0.0161442915128025,0.0101219723095391,-0.144260994293039,0.000559506007059949,0.0022278511917478,0.365194657226274,0.0440382091738639,0.156051311787266,-0.0144556006551307,-0.0299691763054292,-0.0397045808282723,0.357249671926023
5.46,1,0.169367554755292,0.00194301176997182,-0.0155746126692506,0.054241564175339,0.054129662973927,-0.0738954842778812,0.0421053702403841,-0.140680155847855,0.0021464684998118,-0.0267342143009735,0.175745923235776,0.0237332275358338,0.174667602567624,0.0054119490137435,-0.00936918240913114,-0.0777102979623809,0.406964323862423
5.49,1,0.179153823460596,0.0299996948149052,-0.0187078463087863,0.0667032888780379,0.0500808740501114,-0.0723695588040813,-0.00237027090263578,-0.174006368195644,0.00910468866033916,0.0475376649271116,0.203619495223853,0.0307524847153132,0.183243303730379,0.00419120863470361,-0.0331329284544409,-0.0746279285053051,0.5692312387463
5.52,1,0.182459995320495,0.00963367615792311,-0.0356252733949807,0.0838852097130243,0.0518509475997192,-0.0930305897193315,0.0075991088595233,-0.172378714356924,0.000681580044963937,0.0403556423637603,0.181615649891659,0.0176600441501104,0.196162806075218,0.0138147119561347,-0.0332855210018209,-0.0953194779300312,0.715252133752454
5.55,1,0.186997080395927,0.0119429100416069,-0.0366934212266406,0.0939868363495793,0.0312712993764051,-0.0864589373455,0.0148014770958586,-0.166275012461725,0.000356049277219967,0.0419324320200201,0.174423454491816,0.00559506007059949,0.205827000742617,0.0189214758751183,-0.0406404817855363,-0.0861130609047721,0.791029592781355
5.58,1,0.189001129184851,0.00393688772240364,-0.0468153935361797,0.10325429039379,0.0244148075807978,-0.0921862442904955,0.0166325876644185,-0.163630074973805,-0.00452691223893958,0.021952981149734,0.123915321309041,-0.00846379996134322,0.208766950488805,0.0198777225053662,-0.0469476404105757,-0.0935494043804234,0.810225735241757
5.61,1,0.187821080151779,-0.00630715862503942,-0.04371267840612,0.107567573066398,0.0151066621906186,-0.08656066571042,0.021312092450738,-0.158543656727805,-5.08641824599953e-05,0.0252693258461257,0.120578630939665,-0.0011291848506119,0.202439446190781,0.0146794030579546,-0.0446180608539079,-0.0877508875799839,0.806868699199398
5.64,1,0.187088635924355,-0.00558488723410749,-0.0516169723604033,0.112033448286386,0.0153406374299346,-0.0930204168828394,0.0261950539668976,-0.152073732718894,-0.000457777642139958,0.0181686859747103,0.11251157160151,-0.00087486393831192,0.199194311349834,0.0122175766268909,-0.0516780093793552,-0.0934578488519954,0.802168848740094
5.67,1,0.184026612140263,-0.010915453555915,-0.0519221574551632,0.118462680949329,0.0207424136071861,-0.103488265633106,0.010813725190995,-0.163548692281869,-0.00269580167037975,0.0222988575904619,0.144006673380739,0.00427259132663961,0.196691793572802,0.0127669097974588,-0.0521052685120192,-0.103284808903266,0.807153538621174
5.7,1,0.184474216945911,-0.0010884935046439,-0.0623798333689383,0.123386333811457,0.0125125888851588,-0.106285795668406,0.021759697256386,-0.158462274035869,-0.00114953052359589,0.0204575741854101,0.155552842799158,0.00308236945707572,0.190384634947763,0.00597145502080345,-0.0630410677409182,-0.106824956002482,0.80840479750969
5.73,1,0.184545426801355,-0.00137333292641987,-0.0697246213161616,0.128401542202012,0.0154932299773146,-0.11129083122247,0.0271309549241615,-0.160089927874589,-0.00237027090263578,0.0156356496882026,0.148737042349518,0.00387585070345164,0.191808832056642,0.00735496078371532,-0.0696839299701936,-0.112297942035178,0.820164596494441
5.76,1,0.184097821995707,-0.00305185094759972,-0.0731223487044893,0.135634428947824,0.0262967823318176,-0.124556210008037,0.0295724356822413,-0.154962818282622,-0.00298064109215573,0.0116580706198309,0.170354319895016,-0.00398775190486363,0.194514806563514,0.010488194423251,-0.0734580523087252,-0.125237790053,0.825006866664632
5.79,1,0.183670562863043,-0.00367239397361166,-0.0779747917111728,0.144728944771671,0.0274259671824295,-0.138167465234331,0.021596931872514,-0.160456149988301,-0.00281787570828374,0.00749738049460331,0.162856939400413,-0.00799584948271126,0.201116977446821,0.0175379701122064,-0.0785037792087568,-0.140669983011363,0.82713298949146
5.82,1,0.183762118391471,-0.00155644398327586,-0.087262591428368,0.149937437055574,0.011149428795231,-0.137801243120619,0.0285958433790094,-0.160456149988301,-0.00387585070345164,0.0145776746930347,0.162968840601825,0.010559404278695,0.203355001475061,0.0196539201025422,-0.087201554409416,-0.135949786879075,0.828953927223528
5.85,1,0.182348094119083,-0.00662251655629139,-0.087232072918892,0.156539607938882,0.0241706595049898,-0.148116499323506,0.0364085818048646,-0.155369731742302,-0.00440483820103559,-0.00878933072908719,0.163986124251025,0.00192266609698782,0.209896135339417,0.0276294239122695,-0.0883409120965199,-0.150151066621906,0.829411704865668
5.88,1,0.178004292937,-0.0164596494440545,-0.0895413068025758,0.162399161758273,0.0147302672404146,-0.153416547135838,0.0355133721935687,-0.163060396130253,-0.00171920936714784,-0.0302641885636972,0.10457675913775,-0.00789412111779127,0.215216528824732,0.0373343099256366,-0.0895413068025758,-0.155959756258838,0.821222571489608
5.91,1,0.165959654530473,-0.0424715923540961,-0.075869014557329,0.163538519445377,-0.00021362956633198,-0.147099215674306,0.0462965788750877,-0.162531408632669,-0.0021261228268278,-0.0371817173782566,0.00777204707988728,-0.0054831588691875,0.22029277423424,0.054414502395703,-0.0751670888393811,-0.147913042593666,0.810337636443169
5.94,1,0.149367758212022,-0.0571713410850347,-0.0623747469506923,0.160415458642333,-0.0152490819015066,-0.137928403576769,0.0381379640085045,-0.170405184077476,-0.00515762810144353,-0.0461439863277078,-0.0940529597867774,-0.000768049155145929,0.22118289742729,0.0719117811619414,-0.0620695618559323,-0.138630329294717,0.749315876745913
5.97,1,0.126041444135868,-0.0776136560157069,-0.0450504064048179,0.147312845240638,-0.0579343038219347,-0.102252265999329,0.0386059144871364,-0.179967650379955,-0.0148218227688426,-0.0246284371471297,-0.244626199123101,0.0725831883704133,0.210964283171077,0.0849787896359142,-0.0410575680817082,-0.101438439079969,0.543005666269926
6,1,0.0936358734906054,-0.105349894711142,-0.0192012288786482,0.119617297891171,-0.101260414441359,-0.0529343546861171,0.021495203507594,-0.202286853643401,-0.0283110039572334,0.0319121880754011,-0.344711650949634,0.254839726961069,0.19263791823074,0.0990732545955789,-0.00711081270790735,-0.0442823572496719,0.25952940458388
6.03,3,0.0644703512680441,-0.0914741457360556,0.0075940224412773,0.0782494582964568,-0.142735068819239,-0.0193945127719962,0.0145369833470667,-0.253456221198157,-0.0251370789717297,0.0490991953286335,-0.338348541723889,0.49432864365571,0.171681875057222,0.107292906481114,0.00839259010589923,0.021963153986226,0.0635090182195502
6.06,3,0.0499333679209774,-0.0385448774681845,-0.00306711020233772,0.0385041861222165,-0.108635720898058,0.0223497217729219,0.0391959390036724,-0.235552028972238,-0.000966419466739911,0.0172887356181524,-0.168146814376253,0.574083681752983,0.154993336792098,0.105121005890072,-0.00883510849330119,0.0492772199672435,0.0143742179631947
6.09,3,0.0355133721935687,-0.0339874467197689,-0.00856552832626321,0.0272428561255735,-0.00939461450036114,0.0065207881913714,-0.00263476465142776,-0.197261472416354,0.0141911069063387,0.0552842799157689,-0.0596840316985585,0.392900377412234,0.150939461450036,0.115492212693665,-0.00520849228390352,-0.0126855271055228,0.00421664072593361
6.12,3,0.0235348572242398,-0.0284381644133834,1.01728364919991e-05,0.02223782057151,-0.0137740206101667,-0.0120192063152969,-0.00460829493087558,-0.194575843582466,0.0266223130995615,0.0154983163955606,-0.054404329559211,0.115797397788425,0.146504104739525,0.123101494389681,0.000274666585283975,-0.0126194036683248,0.0021566413363038
6.15,3,0.0158391064180425,-0.0154220201218706,0.00164799951170385,0.0132348602760908,-0.0233110548214159,0.000193283893347982,-0.0136417737357707,-0.194250312814722,0.02157658619953,0.00751263974934131,-0.0290281889299193,-0.1095360169276,0.144367809076205,0.128589739677114,0.0243283384706158,0.0308949044262012,0.00172429578539384
6.18,3,0.0458489740694398,0.113711966307566,0.124841049429813,0.0300098676513972,0.115899126153345,0.0924710837122715,0.15469832453383,-0.253456221198157,0.00991851557969909,-0.0361033967101047,0.632216355886512,-0.0961282184311452,0.156051311787266,0.110283720409762,0.130609047720776,0.124113691620635,0.00167851802117985
6.21,3,0.163563951536607,0.384487441633351,0.0483057140822576,0.117613249102247,0.32232632424899,0.0277871028778954,0.0851364686015402,-0.263384909614348,-0.0125431073946348,0.0624001790419223,1.42076377656382,0.1272723573514,0.229534796187221,0.0660522273425499,0.0450351471500799,-0.00395723339538764,0.00167851802117985
6.24,3,0.304788354136784,0.454756309701834,0.0164596494440545,0.2208522802413,0.324554175440738,-0.00745160273038931,-0.0276192510757775,-0.255897701956236,-0.00361135695465967,0.164423556220181,1.44724366995249,0.337361776584165,0.325973286131372,0.021286660359508,0.0087181208736432,-0.0675679799798578,0.00167851802117985
6.27,3,0.428108564511043,0.432833847061576,0.0123447370830409,0.2791477197587,0.157984150720745,-0.0442569251584419,-0.0486770226142155,-0.167902666300445,0.00300098676513972,0.0517949969990132,1.23844111453597,0.0622984506770023,0.406643879512925,-0.021230709758802,0.00743634347565132,-0.0514898119042533,0.00167851802117985
6.3,3,0.540828679260638,0.398134301787367,0.010986663411359,0.285475224056724,0.00685140537736137,-0.00531530706706951,-0.0065614795373394,-0.163121433149205,0.010427157404299,-0.0616779076509903,1.08018229722994,-0.149876400036622,0.475198624632506,-0.065401165807062,0.0075787631865393,0.00551876379690949,0.00167851802117985
6.33,3,0.643833735160375,0.363526312041587,0.00971505884985911,0.283761101107822,0.000152592547379986,0.00754824467706331,-0.0180771304462823,-0.135146132796208,0.0126651814325388,-0.0473494674520096,0.926831873531297,-0.157648447116509,0.535157322916349,-0.10844243700471,0.00720236823633534,0.011383404034547,0.00167851802117985
6.36,3,0.739438052512182,0.335144098228909,0.00557980081586149,0.282408113854386,0.000152592547379986,0.0102745648569191,-0.0209255246640421,-0.132094281848608,0.00745668914863531,-0.0817794325591805,0.773944313893043,-0.154382966602578,0.586006246121606,-0.15322326324249,0.00365204830062766,0.0121768852809229,0.00167851802117985
6.39,3,0.825281533249916,0.296365245521409,0.0010681478316599,0.282621743420718,0.00747194840337331,0.011368144779809,-0.0251167332987457,-0.128574480422376,0.0075584175135553,-0.10917996765038,0.574317656992299,-0.104419080172124,0.62643309834081,-0.198619546088036,0.00202439446190781,0.00986256497899309,0.00167851802117985
6.42,3,0.901989806817835,0.258608762881354,0.000696839299701936,0.28237759534491,0.000666320790225939,0.010381379640085,-0.0684733624276457,-0.0958179469181392,0.0129296751813308,-0.12943408510595,0.206559444970041,-0.0861842707602161,0.650186671549628,-0.251579332865383,-0.000152592547379986,0.0117140212205369,0.00163274025696585
6.45,3,0.972955514186021,0.236126794234036,-0.00804671366517126,0.281339966022726,0.000152592547379986,0.011205379395937,-0.0505895158747113,-0.117486088646097,0.021434166488642,-0.244137902971486,-0.224778995127211,-0.170293282876064,0.648579363383892,-0.324137089144566,-0.010717083244321,0.0127872554704428,0.00142419710887987
6.48,3,1.02093569750053,0.162806075217953,-0.00621560309661143,0.280480361339152,0.000152592547379986,0.0121972309539069,-0.0318714967294331,-0.118767866044089,0.0116478977833389,-0.292168950468459,-0.628330332346568,-0.170176295256406,0.622023173721529,-0.398703980630919,-0.00271614734336375,0.0132755516220588,0.00152592547379986
6.51,3,1.05070650349437,0.10452589495529,0.00525427004811752,0.2799106824956,0.000152592547379986,0.0132094281848608,-0.0186061179438663,-0.115838089134393,-0.000701925717947935,-0.267082735679189,-1.00379446801152,-0.0817082227037365,0.572064373709321,-0.478392895290994,0.00854009623503321,0.0136265144810327,0.00159204891099785
6.54,3,1.06410412915433,0.0536973174230171,0.00440992461928159,0.28110599078341,0.00657673879207739,0.00582903530991546,0.0691447696361176,-0.180496637877539,-0.00959298481195512,-0.192368338063702,-1.17946918139185,0.0442314930672119,0.50445061596525,-0.559404278695029,-0.00806197291990926,-0.0364950509150466,0.00167851802117985
6.57,3,1.04910428174688,-0.0397757906837163,-0.0127414777062288,0.272352264982045,-0.043142999562568,-0.0341552985218869,0.0492873928037355,-0.126295765048168,-0.0155135756502986,-0.135598824020102,-1.33427940712709,0.0751569160028891,0.424120812606179,-0.624749493901385,-0.00793481246375927,-0.0535091199479151,0.00167851802117985
6.6,3,1.02141382081566,-0.087435529648732,0.00404878892381563,0.240201015249082,-0.13037507248146,-0.0207475000254321,0.144362722657959,-0.130100405896176,-0.0295317443362733,-0.101550340281381,-1.30346079897458,-0.00243130792158778,0.343806268501846,-0.677353231401512,0.00641397340820541,-0.00665303506576739,0.00167851802117985
6.63,3,0.997594124169642,-0.0768710389517909,0.00711081270790735,0.204535050508133,-0.110176905626596,0.0102593056021811,0.122674235257017,-0.163569037954853,-0.00967436750389111,-0.0901974547563097,-1.25555182551551,0.00443535671051159,0.266065452029989,-0.731284524063845,0.00681580044963937,0.0136366873175247,0.00167851802117985
6.66,3,0.968347219255145,-0.0935748364716534,0.00998463901689708,0.193233029165522,-0.0228990549434899,0.00385550503046765,0.120090334788049,-0.124668111209449,-0.0207017222612181,-0.0316426079083631,-1.14909309162674,-0.0858689128289641,0.213334554073712,-0.754788862778609,0.0126855271055228,-0.0100355031993571,0.00167851802117985
6.69,3,0.934746340322072,-0.109673350220242,0.0169530320139164,0.193924782046978,-0.00123599963377789,-0.010579749951679,0.113539028087202,-0.116651916053753,-0.0168156987212745,0.00150049338256986,-1.00429293699962,-0.108228807438378,0.180522069968769,-0.753980122277495,0.0195827102470982,-0.021988586077456,0.00167851802117985
6.72,3,0.904161707408877,-0.100029501225827,0.0211442406486201,0.192271696117028,-0.010462762332021,-0.0166580197556485,0.13408815780104,-0.127211320332448,-0.0140079958494827,0.0263781650237536,-0.807189143548896,-0.124546037171545,0.170710369172236,-0.733186844487849,0.021485030671102,-0.0179143650624104,0.00167851802117985
6.75,3,0.877697073274941,-0.0877101962340159,0.0211137221391441,0.187821080151779,-0.022120832951852,-0.0158187607450585,0.13113803521836,-0.116855372783593,-0.0131738232571388,0.0631580553605762,-0.590314442375968,-0.126311024302906,0.14945931374045,-0.727998697876929,0.021561326944792,-0.0114953052359589,0.00167851802117985
6.78,3,0.855459252703431,-0.0741294595171972,0.0209967345194861,0.180323699657175,-0.0271818191066215,-0.0076194545325073,0.130059714550208,-0.11307107760857,-0.00503555406353954,0.0916877753023876,-0.376242357656585,-0.0955636260058392,0.152877386801762,-0.702337717825861,0.0211493270668661,-0.00423698639891761,0.00167851802117985
6.81,3,0.837549974059267,-0.0585701061026846,0.0200455743074842,0.176463108208462,-0.00927762688070314,-0.00298572751040173,0.121921445356609,-0.115207373271889,-0.00462864060385957,0.100807723217465,-0.157806126082135,-0.0816217535935545,0.17640207118951,-0.660944446139917,0.0199743644520402,-0.00850957772555722,0.00167851802117985
6.84,3,0.82553076774397,-0.0390738649657684,0.0182449822484003,0.176931058687094,0.000137333292641987,-0.00713115838089134,0.124566382844529,-0.135858231350647,-0.0021871598457798,0.103325500249234,0.0566932177699108,-0.097532069867041,0.198548336232592,-0.626733197017324,0.0176040935494044,-0.0127109591967528,0.00167851802117985
6.87,3,0.820352793969543,-0.0157373780531226,0.0149591560614846,0.17734305856502,0.000152592547379986,-0.0101524908190151,0.117180903551337,-0.138971119317199,-0.00163782667521185,0.110538041322062,0.258084861802016,-0.0955890580970692,0.208273567918943,-0.611829991556546,0.0133569343139948,-0.0129703665272988,0.00167851802117985
6.9,3,0.819879757072665,-0.0011291848506119,0.011271502833135,0.176132491022472,-0.00739565212968332,-0.0116377249468469,0.00743634347565132,-0.171157973977884,0.0552486749880469,0.0259407330545976,0.344319996744692,-0.054892625710827,0.240404471978922,-0.579210791344951,0.0101016266365551,-0.0097659230323191,0.00167851802117985
6.93,3,0.817153436892809,-0.00750755333109531,0.010467848750267,0.173691010264392,-0.00833155308694723,-0.0100914538000631,-0.164850815352845,-0.28619240902941,0.0789717296873887,-0.0290434481846573,0.121382285022533,-0.192887152724794,0.257810195216732,-0.559099093600269,0.011373231198055,-0.00840276294239123,0.00284839421775974
6.96,3,0.821426028219448,0.0118411816766869,0.00998972543514308,0.165969827366965,-0.0273852758364615,-0.00011190120141199,0.0587888220872626,-0.150161239458398,-0.0224717958108259,0.0558488723410749,0.232164474420403,0.155583361308634,0.269234290597247,-0.551957762382885,0.00789412111779127,0.00129195023448388,0.00255338195949177
6.99,3,0.829584643086032,0.0232551042207099,0.00606301054923144,0.160466322824793,-0.011312194179103,0.00193283893347982,0.000600197353027945,-0.151910967335022,0.0231025116733299,0.0413322346669922,0.224748476617735,0.150964893541266,0.282642089093702,-0.546698405916522,0.00398775190486363,0.000956246630247912,0.00182093773206783
7.02,3,0.833724987538275,0.00962350332143111,0.00484227017019155,0.159347310810673,7.12098554439934e-05,-0.00260424614195176,0.0154525386313466,-0.171605578783532,-0.00660217088330739,0.0826136051515244,0.233059684031699,0.0887986897386598,0.295256406343781,-0.538254951628163,0.00601214636677145,-0.00317392498550371,0.00677510910367138
7.05,3,0.838343455305643,0.00741599780266732,0.00558488723410749,0.158747113457645,0.000152592547379986,-0.00289925840021973,0.0137028107547227,-0.160456149988301,-0.0032247891679637,0.032675150812301,0.228624327321187,0.112887966551714,0.299467960651468,-0.538631346578366,0.00601214636677145,-0.00289925840021973,0.0232245857112339
7.08,3,0.845159255755282,0.0122582679728589,0.00608335622221544,0.158187607450585,0.000152592547379986,-0.00273649301634775,0.00772118289742729,-0.161961729789117,0.00129195023448388,0.0300403861608732,0.227861364584287,0.0367544582455926,0.293150629189937,-0.551794996999013,0.00503555406353954,-0.00271614734336375,0.0486159855952635
7.11,3,0.854813277586189,0.021891944130782,0.00301115960163172,0.157719656971953,0.000152592547379986,-0.00229906104719179,0.0175277972757144,-0.162002421135085,0.00133264158045188,0.0141300698873867,0.252469456058433,0.0162460198777225,0.30720948922188,-0.547379985961486,0.00204474013489181,-0.00228888821069979,0.0699585965554776
7.14,3,0.867061372722556,0.0315256202887051,0.000162765383871985,0.157750175481429,0.000152592547379986,-0.00252286345001577,0.0255846837773776,-0.159357483647165,0.00564592425305948,0.0185654265978983,0.299742627236752,0.0204168828394421,0.323811558376822,-0.54302601194291,-0.000793481246375927,-0.00228888821069979,0.0899278745892717
7.17,3,0.881740775780511,0.0409863582262642,-0.00259407330545976,0.158930224514501,0.000152592547379986,-0.00262459181493576,0.0115461694184189,-0.162205877864925,0.00666320790225939,0.0343638416699728,0.324472792748802,0.054556922106591,0.342814416943876,-0.538692383597318,-0.00399792474135563,-0.00286873989074374,0.105624561296426
7.2,3,0.89547410504471,0.0390331736198004,-0.0198472039958902,0.161880347097181,0.0064699240089114,-0.00276701152582375,0.0302641885636972,-0.154067608671326,-0.0043234555090996,0.0500605283771274,0.323587755973998,0.0809249142938526,0.362498855555895,-0.532751447085991,-0.0395418154444004,-0.00555436872463149,0.123722037415693
7.23,3,0.896074302397738,-0.00567644276253548,-0.0609251177505824,0.167332987456893,0.0125837987406028,-0.00481175166071556,0.0423902096621601,-0.160944446139917,0.000396740623187963,0.0192978708253222,0.251431826736249,0.0257067578152816,0.375072481460005,-0.520747500025432,-0.0641702525915301,-0.0121260210984629,0.175450910977508
7.26,3,0.893154698324534,-0.0177414268420464,-0.0837733085116123,0.175979898475092,0.0247403383485417,-0.0117597989847509,0.0470290231025117,-0.155980101931822,0.00466933194982757,0.0130517492192348,0.189703054902799,0.0176600441501104,0.380952380952381,-0.511958169296345,-0.0833257037059643,-0.0211188085573901,0.228593808811711
7.29,3,0.875677765231279,-0.0700603249203976,-0.137028107547227,0.187047944578387,0.0317290770185451,-0.021769870092878,0.053824477879167,-0.126600950142928,-0.00338755455183569,0.021841079948322,0.0629800307219662,0.0461643320006917,0.383953367717521,-0.491470076601459,-0.153314818770918,-0.0379650257881405,0.274249498987803
7.32,3,0.832087160863063,-0.154993336792098,-0.168716493219804,0.191483301288898,0.0021566413363038,-0.0360423596911527,0.0384024577572965,-0.192032634459466,0.0115054780724509,0.0279753003529974,-0.0933561204870754,0.0155237484867906,0.381786553544725,-0.450076804915515,-0.169011505478072,-0.0480157882422356,0.366995249285358
7.35,3,0.787418235826696,-0.165064444919177,-0.183863846756391,0.187322611163671,-0.0249539679148737,-0.0463169245480717,0.0397452721742403,-0.148981190425326,0.000640888698995941,0.0486159855952635,-0.181859797967467,0.0389110995818964,0.373271889400922,-0.413932716859442,-0.177424441256956,-0.0491653187658315,0.424166590370393
7.38,3,0.735170547603788,-0.188563697215695,-0.205918556271045,0.176213873714408,-0.0474562822351756,-0.0459201839248838,0.0272530289620655,-0.125502283801792,-0.00334686320586769,0.0438652709535,-0.28370006408887,0.0466221096428317,0.358541622160507,-0.376394950203965,-0.231472721538947,-0.0529699596138391,0.47468489638966
7.41,3,0.645598722291737,-0.313577684865871,-0.240323089286986,0.154759361552782,-0.0847499008148442,-0.0474359365621916,0.0395418154444004,-0.184626809493291,0.010854416536963,0.0133874528234708,-0.518590858689128,0.0125125888851588,0.329772840561134,-0.315571560818303,-0.23474837488937,-0.0489415163630075,0.554765465254677
7.44,3,0.558437859228289,-0.312122969247515,-0.219163589383628,0.127465641244748,-0.0986358226264229,-0.0427971231218401,0.0284737693411054,-0.169286172063356,-0.00298064109215573,0.064923042491938,-0.58628091270689,0.0237535732088178,0.285795668406222,-0.272428561255735,-0.222418897061068,-0.0409660125532802,0.613289793593148
7.47,3,0.467156997385581,-0.32486953337199,-0.2147485783461,0.0946785892310353,-0.117526779992065,-0.0350759402244128,0.0397045808282723,-0.130873541469568,-0.00969471317687511,-0.0144962920010987,-0.726371044038209,-0.0289112013102613,0.255887529119744,-0.211004974517045,-0.230791141493983,-0.0294401888078453,0.630685343994466
7.5,3,0.350728883734652,-0.403363139744255,-0.163050223293761,0.0549333170567949,-0.141717785170039,-0.0267545599739575,-0.00973540452284311,-0.181208736431979,0.00377412233853165,0.0152694275744906,-0.919054740033163,-0.010793379518011,0.211890011291849,-0.138584551530503,-0.185247352519303,-0.0133569343139948,0.651844843897824
7.53,3,0.224005859553819,-0.438367870113224,-0.0718100527970214,0.010691651153091,-0.144627216406751,0.00420138147119561,0.0229397462894579,-0.170303455712556,-0.00180059205908383,0.00174972787662384,-1.01562547685171,0.0313425092318491,0.129164504938912,-0.0945768608661153,-0.0450046286406039,0.0119836013875749,0.623096407971435
7.56,3,0.122074037903989,-0.353556932279427,0.02198349965921,-0.0273547573269855,-0.112135176651306,0.0149540696432386,-0.033092237108473,-0.154352448093102,-0.00497451704458754,-0.0277006337677135,-0.769473352254809,0.123549099195329,0.0555843785922829,-0.0662455112358979,0.0670593381552578,0.033082064271981,0.525020091352072
7.59,3,0.0836512344737083,-0.123762728761661,0.100222785119175,-0.0464288257494837,-0.0363780632953887,0.0294198431348613,-0.0831832839950764,-0.177912737408572,-0.02137312946969,-0.15474918871629,-0.175542466505936,0.239916175827306,0.0148218227688426,-0.0685750907925657,0.101219723095391,0.0411186051006602,0.424217454552853
7.62,1,0.08686585080518,0.0229702647989339,0.0711996826075015,-0.0380667541530605,0.0495824050620034,0.0317697683645131,-0.0272326832890815,-0.113823867508978,0.0302641885636972,-0.0992665384889269,0.30263171280048,0.627847122613198,0.0239875484481338,-0.0626341542812382,0.0721152378917814,0.0292774234239733,0.364696188238166
7.65,1,0.103783277891374,0.0745974099958291,0.032644632302825,-0.0194097720267342,0.0726950895718253,0.0184128340505183,-0.0778527176732688,-0.149388103885006,-0.0176702169866024,-0.0349131748405408,0.423576565853857,0.226945809300007,0.0475173192541276,-0.0560218105614388,0.00855535548977121,-0.0172734763634144,0.349915056815292
7.68,1,0.10706910407829,0.0254931282489497,-0.00831120741396323,-0.0139673045035147,0.00195318460646382,-0.00498468988107954,-0.00863673818170721,-0.149021881771294,-0.00371308531957966,-0.0181076489557583,0.254615924558245,0.00962350332143111,0.0680155847855057,-0.0388398897264524,-0.00189214758751183,-0.00283822138126774,0.447248756370739
7.71,1,0.103752759381898,0.00122074037903989,0.0151371807000946,-0.0206610309152501,-0.00840276294239123,0.0184433525599943,0.00361135695465967,-0.180720440280363,0.0162256742047385,0.0255745109408856,0.270546586504715,0.0145064648375907,0.0818709880876085,-0.021668141727958,0.0149540696432386,0.0265511032441176,0.640095217749565
7.74,1,0.106936857203894,0.0160018718019145,1.01728364919991e-05,-0.011291848506119,0.0337941628264209,-0.00424207281716361,-0.0297555467390973,-0.173395998006124,0.00116987619657989,0.0568254646443068,0.381461022776981,0.0209356975005341,0.100924710837123,-0.00582903530991546,-0.00196335744295582,-0.0149438968067466,0.760429700613422
7.77,1,0.107760856959746,0.00306202378409172,0.000813826919359925,-0.00247199926755577,0.0267240414644815,-0.0100507624540951,0.00320444349497971,-0.163223161514125,-0.00473036896877956,0.0186468092898343,0.37336344492935,0.0021261228268278,0.117435224463637,0.0097455773593351,0.000203456729839981,-0.0142724895982747,0.794254381949319
7.8,1,0.114861496831161,0.0153101189204586,-0.00663268939278339,0.0138045391196427,0.0527156387015391,-0.0229194006164739,0.0134993540248828,-0.153050325022126,0.000396740623187963,0.00422172714417961,0.240679138564206,-0.0137435021006907,0.128981393882056,0.0142012797428307,-0.0145064648375907,-0.0457167271950438,0.793115024262215
7.83,1,0.117491175064343,0.00284839421775974,-0.0168818221584724,0.0236416720074058,0.0196844386120182,-0.0377666554765465,-0.00401827041433963,-0.160924100466933,-0.00114953052359589,-0.00150557980081586,0.169291258481602,0.00103254290393791,0.134128849147008,0.0167088839381085,-0.0172836491999064,-0.0334075950397249,0.793343913083285
7.86,1,0.114912361013621,-0.0123752555925169,-0.0133976256599628,0.0283822138126774,0.0126499221778008,-0.0295419171727653,0.0141300698873867,-0.15612252164271,0.00361135695465967,0.0054475539414655,0.131763664662618,0.00573239336324147,0.130868455051322,0.0160527359843745,-0.0126906135237688,-0.0285551520330414,0.784854681030712
7.89,1,0.11001922666097,-0.0188197475101983,-0.0125380209763888,0.0380464084800765,0.0296232998647013,-0.0374869024730166,-0.00363170262764367,-0.161819310078229,0.0011291848506119,0.00862147892696921,0.14973906674398,0.00290434481846573,0.124149296548357,0.0141860204880927,-0.011337626270333,-0.0491093681651255,0.789320556250699
7.92,1,0.104444512263354,-0.0201066113264361,-0.010828984445733,0.0447147028005819,0.0162104149500005,-0.0474613686534216,0.00804671366517126,-0.160252693258461,9.15555284279916e-05,0.011357971943317,0.15497807753736,0.00668355357524339,0.114780114139225,0.010432243822545,-0.0115054780724509,-0.0457065543585518,0.798394726401563
7.95,1,0.0989969583218889,-0.0198929817601042,-0.0126499221778008,0.053941465498825,0.0294961394085513,-0.0587837356690166,0.00377412233853165,-0.159662668741925,-0.00151575263730786,0.0053865169225135,0.166239407534003,0.00184128340505183,0.115619373149815,0.0167088839381085,-0.0138503168838567,-0.0633055614897102,0.791253395184179
7.98,1,0.0909909360026856,-0.0276752016764835,-0.0131890825118768,0.0599892167933185,0.0142419710887987,-0.0598366242459385,0.0121158482619709,-0.158869187495549,-3.05185094759972e-05,-0.00533056632180751,0.142887661366619,0.00260424614195176,0.11134169540493,0.0204321420941801,-0.011220638650675,-0.0576647236548967,0.795230974252551
8.01,1,0.0794040752382987,-0.0389161860001424,-0.00565609708955148,0.0681630909146397,0.0261797947121596,-0.0720643737093214,0.00792463962726727,-0.159581286049989,-3.05185094759972e-05,-0.0140334279407127,0.131097343872392,-0.00603757845800144,0.114556311736401,0.0352387056082848,-0.00281787570828374,-0.0750348419649851,0.802804651020844
8.04,1,0.0715252133752454,-0.0247912025310017,-0.00347402366201768,0.0747398297067171,0.0166224148279265,-0.0743176569922992,0.00879950356557919,-0.161290322580645,0.00167851802117985,-0.0157882422355825,0.114525793226925,-0.00335194962411369,0.107786289050976,0.0363373719494207,-0.00861639250872321,-0.0749483728548031,0.803944008707948
8.07,1,0.0609810683512884,-0.0279193497522914,-0.00963367615792311,0.0797601245155187,0.0147455264951526,-0.0768964710430209,0.00513728242845953,-0.161798964405245,-0.000457777642139958,-0.0123294778283029,0.146671956541643,-0.00160222174748985,0.105665252642394,0.0447604805647959,-0.00959807123020112,-0.0780053102206488,0.804432304859564
8.1,1,0.0408642841883602,-0.0578020569475387,0.00735496078371532,0.0846990366323842,0.0135959959715567,-0.0831578519038463,0.0182602415031383,-0.158441928362885,0.00208543148085981,-0.0190435499130222,0.147048351491846,-0.00686666463209937,0.109530930509354,0.0687429425946837,0.0136722922452467,-0.0825627409690644,0.815230770795821
8.13,1,0.0268613747571235,-0.0397452721742403,0.0131280454929248,0.0929186885179194,0.0262204860581276,-0.0996276741843928,0.00688701030508337,-0.161595507675405,-0.00267545599739575,-0.0230872524185919,0.245943581448815,-0.00133264158045188,0.111534979298278,0.0847499008148442,0.0103101697846411,-0.100288908556373,0.813486129337443
8.16,1,0.0177312540055544,-0.0239519435204118,0.0054729860326955,0.103361105176956,0.0317494226915291,-0.115629545986307,0.0124006876837469,-0.161269976907661,-0.00119022186956389,-0.0418612221645761,0.301955219173762,-0.00415051728873562,0.121051667836543,0.103401796522924,0.00338755455183569,-0.117353841771701,0.823791212703838
8.19,1,0.00914029358806116,-0.0225023143203019,0.00299081392864772,0.114169743949705,0.0355998413037507,-0.125858333079012,0.0170598467970824,-0.167943357646413,0.00338755455183569,-0.0506098615476953,0.340047405418053,0.00680054119490137,0.134484898424228,0.125425987528102,0.00477106031474756,-0.126845098218736,0.815434227525661
8.22,1,0.00173446862188584,-0.0196386608478042,0.00778221991637928,0.124200160730817,0.021952981149734,-0.133457441938536,0.00556454156112349,-0.177770317697684,-0.00495417137160354,-0.0838648640400403,0.363236386201565,-0.0121005890072329,0.15523239844966,0.153609831029186,0.00921658986175115,-0.133432009847306,0.812865586311431
8.25,1,-0.00032553076774397,-0.00397249265012563,0.00668355357524339,0.128371023692536,0.0131127862381868,-0.123142185735649,0.0153711559394106,-0.181839452294483,0.0130924405652028,-0.0887325663014618,0.441363770460117,-0.0282855718660034,0.179280983916745,0.179728588722393,0.00417086296171962,-0.124998728395439,0.80736208176926
8.28,2,-0.000671407208471938,-0.00350962858973968,0.000778221991637928,0.131728059734896,0.00305185094759972,-0.125578580075482,0.000457777642139958,-0.206823938718833,0.00446587521998759,-0.0875525172683899,0.56419568468276,-0.0582293160802026,0.209234900967437,0.210048727886797,0.00192775251523382,-0.125115716015096,0.75853755302591
8.31,2,0.010803552354503,0.0273700165817235,-0.00361644337290567,0.13085828221483,-0.00958281197546312,-0.118706829025137,0.0471510971404157,-0.17805515711946,-0.00296029541917173,-0.0797804701885027,0.572115237891781,-0.00410473952452162,0.244656717632577,0.23393454797001,-0.0076143681142613,-0.122684408093509,0.60966317738375
8.34,2,0.0491704051840775,0.112297942035178,-0.00514236884670553,0.118421989603361,-0.0563778598386588,-0.12638223415835,-0.0171005381430504,-0.227637562181463,0.0292875962604653,-0.0488347015798415,0.645863216040529,-0.101484216844183,0.280149744153162,0.231091240170497,0.0265460168258716,-0.139795119073051,0.425122837000641
8.37,2,0.123727123833939,0.242113508509578,0.0528987497583951,0.0817540004679505,-0.14727215389467,-0.143747266050193,-0.0422681356242561,-0.289854630166529,0.0126855271055228,0.0053763440860215,0.895214697714164,-0.0691040782901497,0.325642668945382,0.202032532731101,0.06511123996704,-0.153798028504288,0.337351603747673
8.4,2,0.257408368175298,0.449034089175085,0.0412457655568102,0.021266314686524,-0.224616229743339,-0.131682281970682,-0.0578529211299987,-0.326151310769982,0.00672424492121138,-0.00261441897844376,1.29394411043631,-0.0574053163243507,0.392050945565152,0.134718873663544,0.04389070304473,-0.131728059734896,0.302234972177292
8.43,2,0.419192073325805,0.555441958881395,0.011017181920835,-0.0535599841303751,-0.261213009023306,-0.0813165684987945,-0.0677002268542538,-0.315225684377575,-0.010406811731315,0.0855281228064821,1.50020345672984,-0.00914029358806116,0.477818130029196,0.0586820073040966,0.00629698578854742,-0.0743837804294972,0.200806705933816
8.46,2,0.577659433779921,0.542191839350566,-0.0137841934466587,-0.135268206834112,-0.28161463260801,-0.032364879299295,-0.0991546372875149,-0.185725475834427,-0.0133976256599628,-0.00361644337290567,1.14895067191585,0.0914792321543016,0.56060975981933,-0.0168767357402264,-0.0164698222805465,-0.0179601428266243,0.053987243263039
8.49,2,0.716752627135024,0.476510920539974,-0.0283262632119714,-0.21919919431135,-0.2596311329488,0.0549485763115329,-0.0347198909471928,-0.128208258308664,0.00558488723410749,0.0997802667317728,0.562232327239804,0.218395540228482,0.609241004669332,-0.107282733644622,-0.0352132735170548,0.118747520371105,0.0124006876837469
8.52,2,0.813338623208309,0.334803308206427,-0.0362865077669607,-0.224921414838099,0.0862554806156601,0.109881893368328,-0.0368968779564806,-0.0402132226528723,-0.00796533097323527,0.124942777794733,0.0443077893409019,0.116550187688833,0.628503270566932,-0.184586118147323,-0.0389263588366344,0.13302000996938,0.00385550503046765
8.55,2,0.869385865860978,0.196773176264738,-0.0287433495081434,-0.142780846583453,0.333099358094017,0.0488347015798415,-0.0387279885250404,-0.0293893246253853,7.12098554439934e-05,0.124342580441705,-0.614078188421277,0.0232703634754479,0.608284758039084,-0.260821354818364,-0.0294707073173213,0.0484125288654235,0.00205999938962981
8.58,2,0.885097811822871,0.0611590929898984,-0.0392315439313944,-0.0342010762861008,0.378200628681295,-0.00549841812392549,-0.0566932177699108,-0.0660318816695659,-0.000478123315123956,0.115385397910499,-1.1041952777693,-0.0225989562669759,0.555991292051963,-0.328852198858608,-0.0610675374614704,-0.0334228542944629,0.00170395011240984
8.61,2,0.83176163009532,-0.175979898475092,-0.117140212205369,0.0385499638864305,0.201050854009623,-0.0537736136967071,-0.205338704591001,0.0567135634428948,-0.00198370311593982,0.0742922249010692,-1.94201483199561,-0.0449130731121759,0.398943042288481,-0.432569353312784,-0.124073000274667,-0.0754214097516811,0.00167851802117985
8.64,2,0.700577817112746,-0.442528560238451,-0.0557674896491389,0.0463169245480717,-0.00487787509791355,-0.0312407808669291,-0.131178726564328,-0.114291817987609,0.00167851802117985,0.108706930753502,-2.84609515671255,-0.205827000742617,0.220099490340892,-0.480239265114292,-0.0564032919298888,-0.0204219692576881,0.00167851802117985
8.67,2,0.535513372193569,-0.557507044689271,-0.00963876257616911,0.0302234972177292,-0.054404329559211,-0.00161239458398185,-0.0387076428520564,-0.285704112877794,-0.000661234371979939,0.0158848841822565,-3.22175766268909,-0.128401542202012,0.0367697175003306,-0.49852493870866,-0.00664286222927539,0.0032247891679637,0.00167851802117985
8.7,2,0.365510015157526,-0.571067435733105,0.0229804376354259,0.0204168828394421,-0.021200191249326,0.00196844386120182,0.11296934924365,-0.441755424665059,-0.00296029541917173,0.0157729829808445,-2.91518397574796,-0.0787377544480728,-0.15093437503179,-0.516307056896675,0.0257627084159876,-0.000152592547379986,0.00167851802117985
8.73,2,0.211554307687613,-0.515676341034171,0.0427564317758721,0.0191045869319742,-9.15555284279916e-05,-0.00276192510757775,0.124403617460657,-0.415712963245542,-0.0177515996785384,-0.02160201829076,-2.46180099897254,0.119220557267983,-0.312763857946511,-0.524231696523942,0.0459456160161138,-0.00634784997100742,0.00167851802117985
8.76,2,0.0898464918973357,-0.414614296904406,0.0475020599993896,0.0186112043621123,0.000152592547379986,-0.00421664072593361,0.124932604958241,-0.324340545874406,-0.0161239458398185,0.0722525711844234,-1.82953886532182,0.343780836410616,-0.43979715364035,-0.529587694936979,0.0517949969990132,-0.00611896114993744,0.00167851802117985
8.79,2,0.0097964415417951,-0.283354187648142,0.043061616870632,0.0181483403017263,0.000152592547379986,-0.00520849228390352,0.0919115777052115,-0.234880621763766,-0.000376394950203965,0.0632953886532182,-1.23476872056235,0.449720755638295,-0.52658670817184,-0.536210211493271,0.0460931221452478,-0.00610370189519944,0.00167851802117985
8.82,2,-0.0333669036937569,-0.149601733451338,0.033061718598997,0.0173650318918424,-0.00187180191452783,-0.00555436872463149,0.0815352844833725,-0.185481327758619,0.00601214636677145,0.0639871415346741,-0.737907040620136,0.482192449720756,-0.584083580024618,-0.550472528255053,0.0318308053834651,-0.00604266487624744,0.00167851802117985
8.85,2,-0.0503758863083794,-0.0586565752128666,0.021861425621306,0.0165308592994985,0.00186162907803583,-0.0021362956633198,0.0694499547308776,-0.161880347097181,0.00849431847081922,0.0790022481968647,-0.374512975452946,0.383353170364493,-0.616087323628447,-0.565528326263212,0.0195318460646382,-0.00535091199479151,0.00167851802117985
8.88,2,-0.0550757367676829,-0.0151676992095706,0.0146387117119867,0.0156763410341706,-0.000569678843551948,-0.00200404878892382,0.0659504989776299,-0.149266029847102,0.0120344655700349,0.106784264656514,-0.112633645639414,0.210099592069257,-0.600889105909401,-0.545599739575386,0.0122989593188269,-0.00481175166071556,0.00167851802117985
8.91,2,-0.0566932177699108,-0.00311288796655171,0.011393576871039,0.0150049338256986,-0.00197353027944782,-0.00178024638609984,0.0587074393953266,-0.139662872198655,0.022044536678162,0.121056754254789,0.0799076306446526,0.0245877458011617,-0.476882229071932,-0.419975381735689,0.010467848750267,-0.00405896176030763,0.00167851802117985
8.94,2,-0.0570696127201148,5.08641824599953e-05,0.0100507624540951,0.0146895758944466,0.000172938220363984,-0.00127160456149988,0.053946551917071,-0.138197983743807,0.0310373241370891,0.097537156285287,0.260465305541144,-0.0962045147048352,-0.35305846329132,-0.295765048168381,0.00991851557969909,-0.00483209733369956,0.00167851802117985
8.97,2,-0.0574256619973347,0.000152592547379986,0.0098269600512711,0.0138960946480707,-0.00449639372946359,-0.00163782667521185,0.0467441836807357,-0.139825637582527,0.0339264097008169,0.032451348409477,0.425936663920001,-0.118910285754977,-0.24181849625131,-0.184148686178167,0.00991851557969909,-0.00407930743329162,0.00167851802117985
9,2,-0.0576799829096347,0.000152592547379986,0.0097862687053031,0.0135807367168188,0.000132246874395988,-0.00293994974618773,0.0371817173782566,-0.150608844264046,0.0266019674265776,-0.0363780632953887,0.578590248318939,-0.0912706890062156,-0.145563117364015,-0.0876593320515559,0.00991851557969909,-0.00448622089297159,0.00167851802117985
9.03,2,-0.0578936124759667,-6.10370189519944e-05,0.00999989827163508,0.0136010823898027,0.000152592547379986,-0.00361135695465967,-0.196386608478042,-0.182144637389243,0.0263985106967376,-0.129520554216132,0.417269407228818,0.0102440463474431,-0.0739056571143732,-0.0158085879085665,0.00991851557969909,-0.00456760358490758,0.00467950478631957
9.06,2,-0.0641499069185461,-0.0196335744295582,0.011281675669627,0.011129083122247,-0.0140385143589587,-0.00264493748791976,-0.183772291227963,-0.197729422894986,-0.0724000773135573,-0.130334381135492,0.263486637979268,0.51992350026958,-0.0551672922961109,0.00906399731437117,0.0139062674845627,-0.0021668141727958,0.10874762209947
9.09,2,-0.0598874884283985,0.0138045391196427,0.0165715506454665,-0.0145980203660187,-0.103996907457706,0.0168360443942585,-0.0691040782901497,-0.138930427971231,0.0265205847346416,-0.0646483759066541,0.298043763542589,0.368053224280526,-0.0372936185796686,0.0226752525406659,0.0204880926948861,0.0462660603656117,0.202124088259529
9.12,2,-0.0574968718527787,0.00930814539017914,0.0279346090070294,-0.043977172154912,-0.0752077801853491,0.0625324259163182,-0.0453403322448398,-0.17286701050854,-0.0361440880560727,0.000844345428835922,0.377157912940865,0.217983540350556,-0.0170700196335744,0.0404980620746483,0.0302133243812372,0.0631427961058382,0.299813837092196
9.15,2,-0.0511897132277393,0.0208644876450901,0.0245674001281777,-0.0593279824213385,-0.0483209733369956,0.0454217149367758,-0.0740277311522772,-0.1696117028311,-0.0133162429680268,-0.0399995930865403,0.380189418215481,0.182103946043275,0.00597145502080345,0.0573341064689067,0.0208644876450901,0.0453301594083478,0.425712861517177
9.18,2,-0.0508438367870113,0.00307219662058372,0.0256457207963296,-0.0798465936257007,-0.06569617806533,0.0620949939471623,-0.0398063091931923,-0.160212001912493,-0.0131127862381868,-0.00520849228390352,0.357615894039735,0.123437197993917,0.0181483403017263,0.0692058066550696,0.0288094729453413,0.0643126723024181,0.528092287972655
9.21,2,-0.0511388490452793,0.00021362956633198,0.0309457686086612,-0.0963977985981831,-0.0481073437706636,0.0609759819330424,-0.0583208716086306,-0.162246569210893,-0.0135196996978668,-0.0116682434563229,0.385723441267128,0.134515416933704,0.0385652231411685,0.0899278745892717,0.0310678426465651,0.0608844264046144,0.633543911048718
9.24,2,-0.0515101575772373,0.000152592547379986,0.0312865586311431,-0.112653991312398,-0.0465254676961577,0.06523840042319,-0.054129662973927,-0.154250719728182,-0.0203355001475061,-0.0245165359457177,0.389924822738324,0.0888088625751518,0.0417594937996562,0.0934883673614714,0.0312814722128971,0.0663981037832779,0.726625364950509
9.27,2,-0.0519577623828852,0.000152592547379986,0.0316019165623951,-0.126606036561174,-0.0372834457431766,0.0658589434492019,-0.0478225043488876,-0.15683462019715,-0.0150049338256986,-0.0169581184321624,0.397467980997141,0.0616219570502843,0.0198065126499222,0.0719982502721234,0.0318308053834651,0.0660725730155339,0.825800347911008
9.3,2,-0.0522731203141372,0.000152592547379986,0.0317545091097751,-0.135893836278369,-0.0250760419527777,0.0633513392539242,-0.0374665568000326,-0.166946419670197,-0.0232245857112339,-0.00602740562150945,0.397488326670125,0.010996836247851,0.0123142185735649,0.064821314127018,0.0318918424024171,0.064800968454034,0.909797458825444
9.33,2,-0.0526291695913572,0.000152592547379986,0.032197027497177,-0.137831761630095,-0.000498468988107954,0.0503046764529354,-0.0307931760612812,-0.167292296110925,-0.0146794030579546,-0.0181941180659403,0.386949268064414,-0.021642709636728,0.0318969288206631,0.0847448143965982,0.032151249732963,0.0506708985666473,0.987207658111311
9.36,2,-0.0553249712617369,-0.00751772616758731,0.0347911008026368,-0.133538824630472,0.021825820693584,0.043799147516302,-0.0209051789910581,-0.169489628793196,-0.0120141198970509,-0.0133467614775028,0.367926063824376,-0.0120955025889869,0.0443281350138859,0.0998921679331848,0.0362610756757307,0.0394350006612344,1.03733939634388
9.39,2,-0.0586718344676046,-0.00916572567929116,0.0418764814193141,-0.120949939471623,0.0477970722576576,0.0292214728232673,-0.0348012736391288,-0.162246569210893,-0.0171615751620024,-0.0271360413424075,0.368170211900184,-0.00592567725658945,0.0460524307992798,0.104948067669708,0.0413627531764682,0.0203202408927681,1.041001617481
9.42,2,-0.0591703034557126,-0.000447604805647959,0.0369579149754326,-0.102430290637939,0.0606250190740684,0.00837224443291523,-0.0318104597104811,-0.156448052410454,-0.0153304645934426,-0.032466607664215,0.387829218420972,-0.00423189998067161,0.0451673940244758,0.104556413464766,0.0365204830062766,0.00373343099256366,1.02952665791803
9.45,2,-0.0611946979176204,-0.00594093651132745,0.0393688772240364,-0.0902686646117537,0.0319477930031231,0.00576291187271747,-0.0256050294503616,-0.156285287026582,-0.0168970814132104,-0.0468306527909177,0.384950305693737,-0.0149591560614846,0.0370850754315826,0.0984832300790429,0.0405997904395683,0.0151778720460626,1.01815342671997
9.48,2,-0.0612608213548184,-0.000320444349497971,0.0363271991129287,-0.0734427930539872,0.0603096611428165,0.00355031993570767,-0.0128076011434268,-0.15622425000763,-0.0139062674845627,-0.0571306497390667,0.392122155420596,-0.0119479964598529,0.043895789462976,0.105370240384126,0.0368053224280526,-0.00197861669769382,1.00856044190802
9.51,2,-0.0607877844579404,0.00253812270475377,0.0376852727846105,-0.0532141076896471,0.0579088717307047,-0.0075685903500473,-0.0257881405072176,-0.158747113457645,-0.0133772799869788,-0.0597450687175105,0.396842351552883,-0.0118106631672109,0.0506963306578773,0.111713003936888,0.0358134708700827,-0.0118564409314249,1.00997955259865
9.54,2,-0.0604113895077364,0.00191757967874182,0.0372224087242246,-0.0336161381878109,0.0625171666615802,-0.0118310088401949,-0.0145980203660187,-0.163935260068565,-0.0124617247026989,-0.0688090660318817,0.427355774610635,-0.0115614286731569,0.0612252164270964,0.121875667592395,0.0372020630512406,-0.0192368338063702,1.01646982228055
9.57,2,-0.0584734641560106,0.00597145502080345,0.0333363851842809,-0.00896226894945118,0.0778679769280068,-0.0252337209184037,-0.010834070863979,-0.159560940377005,-0.011139255958739,-0.075823236793115,0.463911862544633,-0.0129093295083468,0.0750450148014771,0.133701590014344,0.0332804345835749,-0.0369731742301706,1.02909431236712
9.6,2,-0.0524613177892392,0.0185298216701763,0.0269783623767815,0.0127211320332448,0.0638854131697541,-0.0361186559648427,-0.0140690328684347,-0.164321827855261,-0.0131534775841548,-0.0885901465905738,0.505488245287434,-0.0234585609505498,0.100024414807581,0.152724794254382,0.0236518448438978,-0.0385092725404625,1.0350962858974
9.63,2,-0.0453199865718558,0.0234687337870418,0.0195471053193762,0.0362305571662547,0.0777916806543168,-0.0518509475997192,-0.00237027090263578,-0.164057334106469,-0.00857570116275521,-0.101738537756483,0.581413210445469,-0.0242418693604338,0.132501195308288,0.17808058921069,0.0169682912686544,-0.0558336130863369,1.03040660827459
9.66,2,-0.0353200883002208,0.0302285836359752,0.0118004903307189,0.064948474583168,0.0915504420097456,-0.0813114820805485,-0.0259305602181056,-0.171402122053692,-0.0102033550014751,-0.104057944476658,0.775159967853837,-0.0181279946287423,0.172755109307128,0.208278654337189,0.00741599780266732,-0.0824457533494064,1.02418591875973
9.69,2,-0.0165257728812525,0.0492161829482915,-0.000818913337605925,0.0971455020803451,0.104073203731396,-0.111809645883562,0.0243639433983378,-0.159520249031037,0.000396740623187963,-0.107369202754804,0.861374757123529,-0.0404014201279743,0.223726106550289,0.240490941089104,-0.00884019491154719,-0.116575619780063,0.998413037507248
9.72,2,0.02160201829076,0.111529892880032,-0.0485295164850815,0.12681457970926,0.0904517756686097,-0.137908057903785,0.00745668914863531,-0.182693970559811,-0.00633767713451542,-0.0861181473230181,0.897091586046937,-0.0634428947823522,0.274280017497279,0.252764468316701,-0.0637887712230801,-0.143314920499283,0.954873297321492
9.75,2,0.0511693675547553,0.0842819503362122,-0.0741396323536892,0.150761436811426,0.0666931160415459,-0.158452101199377,0.043651641387168,-0.169937233598844,0.00572730694499547,-0.105115919471826,0.772891425316121,-0.0359711498357087,0.324879706208482,0.273812067018647,-0.0715455590482294,-0.161758273059277,0.899817906226793
9.78,2,0.0829086174097924,0.0934781945249794,-0.0424105553351441,0.164179408144373,0.0243639433983378,-0.163070568966745,0.0126448357595548,-0.234677165033926,-0.011159601631723,-0.147455264951526,0.756736960966826,-0.0925626392406995,0.369691050955738,0.286873989074374,-0.0335703604235969,-0.173345133823664,0.809004994862718
9.81,2,0.136356700338755,0.168319752596617,-0.0200506607257302,0.156702373322754,-0.0530208237962991,-0.181005279702139,-0.00163782667521185,-0.268817204301075,0.00995920692566708,-0.159438866339101,0.871466210923592,-0.119947915077161,0.418998789432457,0.282713298949146,-0.0189926857305623,-0.195094658243558,0.659332051555935
9.84,2,0.216864528336436,0.264402193263548,-0.0126956999420148,0.118472853785821,-0.160466322824793,-0.174484491510768,-0.0164901679535305,-0.256976022624388,0.0246080914741457,-0.145461388999095,0.95903398744672,-0.232144128747419,0.4738710694703,0.257077750989308,-0.00331634469639169,-0.184453871272927,0.51860103152562
9.87,2,0.316446424756615,0.334554073712373,-0.0022075055187638,0.0516678365428632,-0.251004567603585,-0.142521439252907,-0.032807397686697,-0.272479425438195,-0.00676493626717938,-0.141066723634551,1.07534002705975,-0.273649301634775,0.535416730246895,0.219041515345724,0.00625629444257942,-0.145257932269255,0.392101809747612
9.9,2,0.4330576494644,0.396394746747236,-0.00246182643106377,-0.0353302611367128,-0.309895118055768,-0.0880967640207119,-0.0358592486342967,-0.249488814966277,0.0154118472853786,-0.119571520126957,1.09157587410098,-0.308796451714632,0.600583920814641,0.167607654042177,0.000254320912299977,-0.0814233832819605,0.238502151554918
9.93,2,0.554623045543789,0.415377259641306,-0.00805688650166326,-0.128350678019552,-0.315510523799351,-0.0360728782006287,0.00808740501113926,-0.187434512365083,-0.00208543148085981,-0.165471358378857,0.97313353882463,-0.422671183406069,0.663421531825719,0.108910387483342,-0.00855535548977121,-0.0176600441501104,0.076540421765801
9.96,2,0.670308542130802,0.398856573178299,-0.0174769330932544,-0.222764773501796,-0.316802474033835,-0.00566626992604348,-0.0347605822931608,-0.129571418398592,0.00182093773206783,-0.274819177831355,0.615914385408083,-0.337544887641021,0.711762850835699,0.0415051728873562,-0.0254727825759657,0.132297738578448,0.0170801924700664
9.99,2,0.75696076336965,0.303557440921252,-0.0291044852036093,-0.270851771599475,-0.0625324259163182,0.144138920255135,0.0155746126692506,-0.0943327127903073,0.0395825067903684,-0.425631478825241,0.254961800998973,-0.454288359223202,0.736828719951984,-0.0199285866878262,-0.0308745587532172,0.180038860235399,0.00480157882422356
10.02,2,0.807468896552426,0.181229082104963,-0.0229295734529659,-0.200760928169602,0.319223609118931,0.0726543982258573,-0.0441195918657999,-0.0311797438479771,0.0177312540055544,-0.614073102003031,-0.332529679250465,-0.549038158309682,0.733695486312449,-0.0735089164911852,-0.0226040426852219,0.0800297046825566,0.00225836970122379
10.05,3,0.826308989735608,0.0724814600054933,-0.032746360667745,-0.0818608152511165,0.427645700450657,0.00127160456149988,-0.0561642302723268,-0.0555131687368389,0.0295724356822413,-0.789635914181951,-0.823735262103132,-0.793023468733787,0.698049867244484,-0.128014974415316,-0.0605690684733624,-0.0245063631092257,0.00173955504013184
10.08,3,0.777937152216152,-0.157424644713686,-0.111402732423882,0.00777204707988728,0.256650491856644,-0.0557573168126469,-0.208675394960377,0.0298165837580493,0.00934883673614714,-0.967436750389111,-1.63049206010112,-0.988860744041261,0.62673828343557,-0.150944547868282,-0.117689545375937,-0.0788903469954527,0.00167851802117985
10.11,3,0.656280200608336,-0.407015188044883,-0.0524918362987152,0.0265205847346416,0.0241299681590218,-0.0320342621133051,-0.15052746157211,-0.132541886654256,-0.0121361939349549,-1.04740541805272,-2.55393129266233,-1.5422732220425,0.494593137404502,-0.161442915128025,-0.0535905026398511,-0.022156437879574,0.00167851802117985
10.14,3,0.50216172775455,-0.517593920712912,-0.0129805393637908,0.0125125888851588,-0.0510981576993113,0.000518814661091952,-0.0506708985666473,-0.295714183985921,-0.0466831466617837,-1.1450748212124,-2.83494572791732,-2.08665222123885,0.331898963387961,-0.170038961963764,-0.00735496078371532,0.00821965188553524,0.00167851802117985
10.17,3,0.345245724865464,-0.524694560584328,0.0201829076001261,0.00478123315123956,-0.0121056754254789,0.00452691223893958,0.0674967701244138,-0.441674041973123,-0.10849330118717,-1.07076225063835,-2.47894731487981,-2.61300495417137,0.168563900672424,-0.176468194626708,0.0224209316283659,0.00313323363953571,0.00167851802117985
10.2,3,0.206661173334961,-0.462284208705913,0.0343841873429568,0.0043132826726076,0.000142419710887987,0.000640888698995941,0.0477614673299356,-0.365540533667002,-0.167455061494797,-0.721274452955718,-1.94145532598855,-2.5712658060447,0.0371308531957966,-0.16930651773634,0.0387178156885484,-0.00122074037903989,0.00167851802117985
10.23,3,0.108503474023662,-0.333221432131921,0.0345978169092888,0.00398775190486363,0.000152592547379986,0.000640888698995941,0.0298572751040173,-0.283669545579394,-0.174453973001292,-0.515457625049593,-1.37967060355439,-2.0231432030193,-0.0605385499638864,-0.168970814132104,0.0368053224280526,-0.000854518265327921,0.00167851802117985
10.26,3,0.0556861069572029,-0.181890316476943,0.0243334248888618,0.00373343099256366,0.000152592547379986,0.000610370189519944,0.0160222174748985,-0.232194992929879,-0.162043112481053,-0.336537776828313,-0.873378704184088,-1.49436933500168,-0.126448357595548,-0.182053081860815,0.02213609220659,-0.00076296273689993,0.00167851802117985
10.29,3,0.0369579149754326,-0.0660624001790419,0.010986663411359,0.00347911008026368,0.000152592547379986,0.000610370189519944,-0.0130314035462508,-0.208716086306345,-0.168513036489964,-0.144413586840419,-0.637816502375357,-1.37663909827977,-0.17027293720308,-0.207118950977101,0.00628681295205542,-0.00076296273689993,0.00167851802117985
10.32,3,0.0352285327717928,-0.00748720765811131,-0.00193283893347982,0.0032654805139317,0.000152592547379986,0.000610370189519944,-0.0198675496688742,-0.193700979644154,-0.15642770673747,0.0479344055502996,-0.539048432874538,-1.55744092125207,-0.204636778873053,-0.239804274625894,-0.00383515935748365,-0.00076296273689993,0.00167851802117985
10.35,3,0.0348724834945728,-0.000101728364919991,-0.00468967762281157,0.00309254229356772,0.000152592547379986,0.000610370189519944,-0.0191351054414502,-0.178726564327932,-0.140313933734143,0.200476088747826,-0.533361817275511,-1.78656371756137,-0.236843979206722,-0.271655425682343,-0.00558488723410749,-0.00076296273689993,0.00167851802117985
10.38,3,0.0344045330159408,0.000152592547379986,-0.00558488723410749,0.00295012258267973,0.000152592547379986,0.000610370189519944,-0.0181585131382183,-0.172704245124668,-0.122328358816289,0.311593981749931,-0.517136143070772,-1.99691763054292,-0.268278043966999,-0.302601194291004,-0.00564592425305948,-0.00076296273689993,0.00167851802117985
10.41,3,0.0338450270088809,0.000152592547379986,-0.00568661559902748,0.00282804854477574,0.000152592547379986,0.000610370189519944,-0.021251055431786,-0.165013580736717,-0.105604215623442,0.375998209580777,-0.515701773125401,-2.15814691610462,-0.292550431836909,-0.326324248990346,-0.00537125766777551,-0.00076296273689993,0.00167851802117985
10.44,3,0.0334177678762169,0.000152592547379986,-0.00516780093793552,0.00274666585283975,0.000152592547379986,0.000620543026011943,-0.0287382630898974,-0.162205877864925,-0.0954720704774112,0.411043631295714,-0.526505325479904,-2.32790103864661,-0.300515762810144,-0.333882666503901,-0.00518814661091952,-0.000488296151615955,0.00167851802117985
10.47,3,0.0332956938383129,0.000152592547379986,-0.00523901079337952,0.00274666585283975,0.000152592547379986,0.000640888698995941,-0.032197027497177,-0.166071555731885,-0.0901821955015717,0.427991576891385,-0.539628284554582,-2.48628192999054,-0.316192103844315,-0.349406414990692,-0.00518814661091952,-0.000305185094759972,0.00167851802117985
10.5,3,0.0338043356629129,0.000152592547379986,-0.00513728242845953,0.00259407330545976,0.000152592547379986,0.000620543026011943,-0.0353302611367128,-0.178401033560188,-0.0849330118717002,0.410534989471114,-0.547573269854834,-2.54378897467981,-0.347799106824956,-0.381501714122949,-0.00527970213934751,-0.000305185094759972,0.00167851802117985
10.53,3,0.0354726808476007,0.000152592547379986,-0.0053814305042675,0.00250251777703177,0.000152592547379986,0.000610370189519944,-0.0448520360932239,-0.182714316232795,-0.0850550859096042,0.363689077425459,-0.612262337107456,-2.43202002014222,-0.382132429985453,-0.417544073814102,-0.00564592425305948,-0.000305185094759972,0.00167851802117985
10.56,3,0.0379039887691885,0.000152592547379986,-0.00559506007059949,0.00229906104719179,0.000152592547379986,0.000610370189519944,-0.0468459120456557,-0.192114017151402,-0.0887986897386598,0.30385245317952,-0.747489852595599,-2.14376252530493,-0.423464664652445,-0.46129744356619,-0.00601214636677145,-0.000305185094759972,0.00167851802117985
10.59,3,0.0399487289040803,0.000152592547379986,-0.00616473891415143,0.00208543148085981,0.000152592547379986,0.000630715862503942,-0.0293486332794173,-0.211076184372489,-0.097384563737907,0.271085746838791,-0.791802728354747,-1.71185440636413,-0.470117292804753,-0.509994811853389,-0.00637836848048341,-0.000305185094759972,0.00167851802117985
