time,Mode,Knee_Angle,Knee_Velocity,Knee_Current,Ankle_Angle,Ankle_Velocity,Ankle_Current,Acc_X,Acc_Y,Acc_Z,Gyro_X,Gyro_Z,Gyro_Y,Shank_Angle,Thigh_Angle,Knee_Ref_Torque,Ankle_Ref_Torque,Filtered_Vertical_Load
0,2,-0.0195318460646382,0.000152592547379986,0.0116885891293069,-0.0301522873622852,-0.0197353027944782,0.0344350515254168,-0.0452182582069358,-0.153457238481806,0.0149235511337626,0.0388297168899604,0.166905728324229,-0.102196315398623,-0.223548081911679,-0.203802606280709,0.0117496261482589,0.0383617664113285,0.250913012075157
0.03,2,-0.0199896237067782,0.000152592547379986,0.0120039470605589,-0.0346079897457808,-0.00938952808211514,0.0377717418947925,-0.0416374197617522,-0.158502965381837,0.0139469588305307,0.0459710481073438,0.187383648182623,-0.0786360260831528,-0.215084281950336,-0.194891201513718,0.0123193049918109,0.0358592486342967,0.313292845444095
0.06,2,-0.0203761914934741,0.000152592547379986,0.0122175766268909,-0.0376496678568885,-0.010559404278695,0.0360321868546607,-0.043061616870632,-0.155695262510046,0.0134179713329468,0.0510676391898353,0.184016439303771,-0.0721559292377494,-0.207149469486577,-0.186518957080803,0.0123599963377789,0.0376089765109205,0.377859838658813
0.09,2,-0.0207831049531541,0.000152592547379986,0.0124922432121749,-0.0399283832310963,-0.00422172714417961,0.0385652231411685,-0.0398876918851283,-0.157689138462477,0.0139876501764987,0.0623391420229703,0.184881130405591,-0.0822066916918444,-0.199448632262134,-0.178441724906156,0.0127262184514908,0.0393993957335124,0.433993550421664
0.12,2,-0.021230709758802,0.000152592547379986,0.0129093295083468,-0.0422070986053041,-0.0075991088595233,0.0394400870794804,-0.0404980620746483,-0.153904843287454,0.0126448357595548,0.0745974099958291,0.178187403993856,-0.0820540991444645,-0.192744733013906,-0.171320739361756,0.0128482924893948,0.0413220618305002,0.478723512476984
0.15,2,-0.0240078941211178,-0.00750755333109531,0.0160222174748985,-0.0448927274391919,-0.00774152857041129,0.0426953947569201,-0.0351674957528408,-0.154881435590686,0.0101626636555071,0.0727866451002533,0.168024740338349,-0.0850754315825882,-0.184464044109419,-0.160201829076001,0.0181178217922503,0.043956826481928,0.527410707927692
0.18,2,-0.0248929308959217,-0.00169886369416384,0.0171920936714784,-0.0453606779178238,0.00011190120141199,0.0415763827428002,-0.0373241370891446,-0.155980101931822,0.010569577115187,0.0696534114607176,0.171829381186356,-0.0901821955015717,-0.176742861211992,-0.15164647358623,0.0157882422355825,0.0402539139988403,0.582934049501022
0.21,2,-0.0289315469832453,-0.0125634530676188,0.0197556484674622,-0.0470595416119877,-0.00728375092827133,0.0428683329772841,-0.0317087313455611,-0.157567064424573,0.010691651153091,0.0608640807316304,0.159377829320149,-0.0673034862310658,-0.168685974710328,-0.139550970997243,0.0234585609505498,0.0452894680623798,0.645344401379437
0.24,2,-0.032308928698589,-0.010620441297647,0.0251269061352377,-0.0482497634815516,-0.000244148075807978,0.0449944558041119,-0.0301624601987772,-0.159357483647165,0.00808740501113926,0.0414543087048962,0.173050121565396,-0.021210364085818,-0.158513138218329,-0.125990579953408,0.0253608813745537,0.043427838984344,0.728039389222897
0.27,2,-0.0359202856532487,-0.00995920692566708,0.0268461155023855,-0.0483718375194555,0.000152592547379986,0.043041271197648,-0.0309762871181372,-0.160171310566525,0.00808740501113926,0.0337229529709769,0.173009430219428,-0.0248013753674937,-0.148513239946694,-0.112379324727114,0.0268562883388775,0.043031098361156,0.808018229722994
0.3,2,-0.0387991983804844,-0.00890123193049918,0.0281278929003774,-0.0480056154057436,0.0021769870092878,0.043346456292408,-0.0277209794406975,-0.160171310566525,0.00951160212001912,0.0349030020040488,0.173772392956328,-0.021566413363038,-0.138482823165583,-0.0994598223822749,0.0284025594856614,0.043031098361156,0.860774559770501
0.33,2,-0.0413729260129602,-0.00807723217464726,0.0286467075614694,-0.0451267026785078,0.010691651153091,0.0374665568000326,-0.0228380179245379,-0.158869187495549,0.011302021342611,0.0450046286406039,0.168533382162948,-0.0165512049724825,-0.128706727296772,-0.087089653208004,0.0291146580401013,0.0350250760419528,0.881669565925067
0.36,2,-0.0455743074841558,-0.0122582679728589,0.0315256202887051,-0.0409354940438042,0.0158187607450585,0.032156336151209,-0.0235297708059938,-0.158502965381837,0.00991851557969909,0.0610065004425184,0.155501978616698,-0.00839259010589923,-0.118900112918485,-0.0731426943774733,0.032970163070569,0.0284330779951374,0.881913714000875
0.39,2,-0.0474969735811436,-0.00620543026011943,0.0340993479211809,-0.0351674957528408,0.0204779198583941,0.0264493748791976,-0.0269885352132735,-0.156712546159246,0.0087384665466272,0.0658284249397259,0.1746981210771,-0.011088391776279,-0.110497349976094,-0.0627969196651102,0.0332041383098849,0.0210272530289621,0.886491490422274
0.42,2,-0.0482395906450596,-0.00167851802117985,0.0300403861608732,-0.0294503616443373,0.0190638955860062,0.0197556484674622,-0.0209255246640421,-0.156956694235054,0.00711081270790735,0.076235236671041,0.17286701050854,-0.0131839960936308,-0.10457675913775,-0.0561235389263588,0.0297046825566373,0.0164596494440545,0.889584032715842
0.45,2,-0.0504776146732994,-0.00662251655629139,0.0339671010467849,-0.0239265114291818,0.0177821181880144,0.0158391064180425,-0.0206813765882341,-0.158055360576189,0.00495417137160354,0.0732545955788853,0.172063356425672,-0.011139255958739,-0.0955636260058392,-0.0448927274391919,0.0348216193121128,0.0115665150914029,0.895087537258014
0.48,2,-0.0505081331827754,-0.000264493748791976,0.0315357931251971,-0.0171412294890184,0.0229194006164739,0.0086469110181992,-0.0171005381430504,-0.158950570187485,0.00475071464176356,0.0732952869248533,0.17505417035432,-0.0175379701122064,-0.0874762209947,-0.0367442854091006,0.0311187068290251,0.00428276416313161,0.898841313923561
0.51,2,-0.0504979603462834,0.000152592547379986,0.0308440402437412,-0.0116072064373709,0.0162358470412305,0.00172938220363984,-0.0151880448825546,-0.160049236528621,0.00597145502080345,0.0776187424339529,0.169082715333516,-0.0125634530676188,-0.0789513840144047,-0.0282194484288054,0.0308236945707572,0.0021566413363038,0.902188177129429
0.54,2,-0.0505183060192674,0.000152592547379986,0.0308440402437412,-0.0043132826726076,0.0253201900285857,-0.00181076489557583,-0.0120955025889869,-0.159601631722973,0.00377412233853165,0.0749127679270811,0.176824243903928,-0.00694804732403536,-0.0663777581102939,-0.0155949583422346,0.0308236945707572,-0.00718202256335134,0.914365062410352
0.57,2,-0.0505793430382193,0.000152592547379986,0.0308847315897092,0.0033061718598997,0.0204779198583941,-0.00887071342102318,-0.0163274025696585,-0.159967853836685,0.00316375214901171,0.075726594846441,0.170466221096428,-0.010366120385347,-0.0589312417981506,-0.00811792352061525,0.0308236945707572,-0.0145573290200507,0.916501358073672
0.6,2,-0.0505284788557594,0.000152592547379986,0.0308033488977732,0.00811792352061525,0.0150761436811426,-0.0114139225440229,-0.00188197475101983,-0.160578224026205,0.00137333292641987,0.0698975595365256,0.168808048748232,-0.0164189580980865,-0.0478937142043316,0.00282804854477574,0.0308236945707572,-0.0137740206101667,0.921435183772291
0.63,2,-0.0505081331827754,0.000152592547379986,0.0309050772626932,0.0154830571408226,0.0275378683838415,-0.0172734763634144,-0.00574765261797947,-0.160374767296365,0.00137333292641987,0.065218054750206,0.179937131870479,-0.0252794986826177,-0.0341705577766249,0.0164291309345785,0.0308236945707572,-0.0255439924314096,0.923408714051739
0.66,2,-0.0505081331827754,0.000152592547379986,0.0308135217342652,0.0233873510951059,0.02162745038199,-0.0279142633340454,-0.0153101189204586,-0.160171310566525,0.00259407330545976,0.0716778059226254,0.188146610919523,-0.0372020630512406,-0.0279753003529974,0.0226447340311899,0.0308236945707572,-0.032736187831253,0.921892961414431
0.69,2,-0.0505081331827754,0.000152592547379986,0.0308847315897092,0.0300912503433332,0.0241401409955138,-0.0336619159520249,-0.000254320912299977,-0.160740989410077,-5.08641824599953e-05,0.0766523229672129,0.213721121860408,-0.0354218166651407,-0.0188502660196743,0.0317595955280211,0.0308236945707572,-0.0369070507929726,0.919471826329335
0.72,2,-0.0505081331827754,0.000152592547379986,0.0307830032247892,0.0407218644774723,0.0356964832504247,-0.0479954425692516,-0.011118910285755,-0.163060396130253,-0.000986765139723909,0.0676391898353018,0.233924375133518,-0.0240485854670858,-0.00639871415346741,0.0441908017212439,0.0308236945707572,-0.054180527156387,0.919359925127923
0.75,2,-0.0506607257301553,0.000152592547379986,0.0307728303882972,0.0470391959390037,0.0200608335622222,-0.0525630461541592,0.00772118289742729,-0.158950570187485,-0.00237027090263578,0.065248573259682,0.236101362142806,-0.021393475142674,0.00349945575324768,0.054333119703767,0.0308236945707572,-0.0509659108249153,0.916114790286976
0.78,2,-0.0508133182775353,0.000152592547379986,0.0309355957721692,0.0589312417981506,0.0426038392284921,-0.0703248186691895,-0.000457777642139958,-0.157689138462477,0.000722271390931934,0.0705689667449975,0.241554002502518,-0.0576901557461267,0.0233263140761539,0.0743430890835292,0.0308236945707572,-0.0731630400504573,0.91623686432488
0.81,2,-0.0506912442396313,0.000152592547379986,0.0308745587532172,0.0686768191574857,0.0287077445804214,-0.075746940519425,-0.00232957955666779,-0.162165186518957,0.0139062674845627,0.103050833663951,0.242469557786798,-0.246752321949929,0.0285348063600574,0.0794701986754967,0.0308236945707572,-0.0750857061474451,0.920133060701315
0.84,2,-0.0506607257301553,0.000152592547379986,0.0309762871181372,0.0791243222347687,0.0353912981556647,-0.0857163202815841,0.000478123315123956,-0.161025828831853,0.0161036001668345,0.125024160486669,0.245999532049521,-0.543646554968922,0.0400097659230323,0.0908536027100436,0.0308236945707572,-0.0878831344543799,0.914833012888984
0.87,2,-0.0505386516922514,0.000152592547379986,0.0307423118788212,0.0860113325398521,0.0156051311787266,-0.0844040243741162,-0.0022075055187638,-0.170913825902076,0.0182602415031383,0.164769432660909,0.222083193456832,-0.653889584032716,0.0518611204362112,0.102613401694795,0.0308236945707572,-0.0842005676442763,0.898749758395133
0.9,2,-0.0483921831924395,0.00667338073875139,0.0292774234239733,0.0883510849330119,0.00454725791192358,-0.0807824945829646,0.0100812809635711,-0.169774468214972,0.00226854253771579,0.175654367707348,0.189987894324574,-0.648864202805668,0.0643635364848781,0.112989694916634,0.0272225104525895,-0.0818608152511165,0.833287555569119
0.93,2,-0.043031098361156,0.0164901679535305,0.021505376344086,0.0876796777245399,-0.00620543026011943,-0.0741396323536892,0.00678528194016338,-0.165583259580269,0.00959298481195512,0.149622079124322,0.121982482375561,-0.80347097181107,0.0735801263466292,0.116845199947101,0.0187180191452783,-0.0749331136000651,0.627989542324086
0.96,2,-0.0366425570441806,0.0204474013489181,0.0152897732474746,0.0797448652607807,-0.0305286823124892,-0.0570899583930987,0.00788394828129927,-0.170384838404492,0.0164698222805465,0.168207851395204,0.0767438784956409,-1.05427208268482,0.0791243222347687,0.116000854518265,0.0131433047476628,-0.0560523290709148,0.406598101748711
0.99,2,-0.0307117933693452,0.0167546617023225,0.010427157404299,0.0674967701244138,-0.0459608752708518,-0.0438652709535,-0.000376394950203965,-0.171076591285948,0.0141097242144027,0.181066316721091,0.0590634886725466,-1.19678334910123,0.0832239753410444,0.114159571113213,0.00953194779300312,-0.0381379640085045,0.217586799727368
1.02,1,-0.0270393993957335,0.00385550503046765,0.0132552059490748,0.0501113925595874,-0.0591041800185146,-0.0271106092511775,0.00686666463209937,-0.165501876888333,0.00263476465142776,0.153853979104994,0.0461236406547238,-1.24613177892392,0.0858892585019481,0.113162633136998,0.0152592547379986,-0.0139062674845627,0.0837834813481043
1.05,1,-0.0181890316476943,0.0165715506454665,0.010335601875871,0.0339874467197689,-0.0504776146732994,-0.00693787448754336,0.00141402427238787,-0.144179611601103,-0.011159601631723,0.122633543911049,-0.0467136651712597,-1.3164667704296,0.0849838760541602,0.103366191595202,0.00441501103752759,0.000640888698995941,0.0200811792352062
1.08,1,-0.00985747856074709,0.0155746126692506,-0.00172938220363984,0.0293689789524013,-0.00454725791192358,-0.00305185094759972,-0.0125837987406028,-0.147556993316446,-0.0131127862381868,0.0914131087171036,-0.0837733085116123,-1.25282550533565,0.0808943957843766,0.0909553310749636,-0.00187180191452783,-0.0188400931831823,0.0054424675232195
1.11,1,-0.00644957833592741,0.00223802402823979,0.00144454278186387,0.0268664611753695,-0.00962350332143111,-0.0138859218115787,-0.021454512161626,-0.155939410585854,-0.00639871415346741,-0.00782291126234728,-0.145400351980143,-1.02116967273985,0.0553504033529669,0.0620339569282103,0.00249234494053977,-0.0183416241950743,0.00240078941211178
1.14,1,-0.00418103579821162,0.000183111056855983,0.00283822138126774,0.021871598457798,-0.0190333770765302,-0.0132653787855668,-0.0204779198583941,-0.156875311543118,-0.00586972665588346,-0.0967131565294351,-0.144545833714815,-0.734550004577776,0.0247505111850337,0.0291553493860693,0.00265511032441176,-0.00584938098289946,0.00178024638609984
1.17,1,-0.00224819686473179,0.000152592547379986,0.00138350576291187,0.0175786614581744,-0.0101423179825231,-0.00296029541917173,-0.0211696727398501,-0.158177434614093,-0.00363170262764367,-0.15703807692699,-0.174006368195644,-0.559038056581317,-0.00423189998067161,-0.00177007354960784,0.00149540696432386,-0.00619525742362743,0.00167851802117985
1.2,1,-0.000691752881455936,0.000152592547379986,0.000152592547379986,0.0169988097781304,7.12098554439934e-05,-0.0065004425183874,-0.0229194006164739,-0.157811212500381,-0.00611387473169144,-0.193599251279234,-0.198990854619994,-0.508000935900957,-0.0312000895209611,-0.0302947070731732,0.000549333170567949,-0.0143436994537187,0.00167851802117985
1.23,1,0.00021362956633198,0.000152592547379986,0.000152592547379986,0.0164291309345785,-0.00331634469639169,-0.011322367015595,-0.0191757967874182,-0.158340199997965,-0.00920641702525915,-0.213660084841456,-0.196386608478042,-0.505193233029166,-0.054211045665863,-0.054282255521307,0.000152592547379986,-0.0139062674845627,0.00167851802117985
1.26,1,0.00065106153548794,0.000152592547379986,0.000152592547379986,0.0144962920010987,-0.00421155430768761,-0.00566626992604348,-0.0157170323801386,-0.156509089429406,-0.0167343160293385,-0.239794101789402,-0.181269773450931,-0.468855861079745,-0.0701111891028576,-0.0706808679464095,0.000152592547379986,-0.00711081270790735,0.00167851802117985
1.29,1,0.000925728120771915,0.000152592547379986,0.000152592547379986,0.0144962920010987,0.000152592547379986,-0.00705994852544735,-0.0146997487309386,-0.150812300993886,-0.0250760419527777,-0.266660562964771,-0.175990071311584,-0.384044923245949,-0.0822575558743044,-0.0830917284666484,-0.000122074037903989,-0.0125125888851588,0.00167851802117985
1.32,1,0.0010681478316599,0.000152592547379986,0.000152592547379986,0.0144962920010987,0.000152592547379986,-0.0102847376934111,-0.0159204891099785,-0.149672943306782,-0.0345164342173528,-0.280922879726554,-0.195735546942554,-0.284880113121942,-0.0935697500534074,-0.0945972065390993,-0.000305185094759972,-0.0125125888851588,0.00167851802117985
1.35,1,0.000885036774803919,0.000152592547379986,0.000152592547379986,0.0123193049918109,-0.0076601458784753,-0.00669372641173538,-0.0164901679535305,-0.148940499079358,-0.0453403322448398,-0.274747967975911,-0.240994496495458,-0.233883683787551,-0.105980610573646,-0.106794437493006,-0.000183111056855983,-0.00515762810144353,0.00167851802117985
1.38,1,-0.000284839421775974,0.000152592547379986,0.000152592547379986,0.0120548112430189,0.000132246874395988,-0.00423189998067161,0.0152897732474746,-0.168919949949644,-0.086926887824132,-0.131890825118768,-0.220587786492508,-0.247759432762637,-0.116397595141453,-0.115899126153345,0.000244148075807978,-0.0100405896176031,0.00167851802117985
1.41,1,-0.00232957955666779,0.000152592547379986,0.000152592547379986,0.010681478316599,-0.00724305958230333,-0.0064800968454034,0.0678629922381258,-0.205013173823257,-0.19805495366273,0.0903246152124597,0.076540421765801,-0.0603757845800144,-0.118096458835617,-0.115522731203141,0.00125125888851588,-0.00440483820103559,0.0251574246447137
1.44,1,-0.00242113508509578,0.000152592547379986,0.000152592547379986,0.0075787631865393,-0.00809757784763126,-0.000335703604235969,-0.0145776746930347,-0.165298420158493,-0.0780561744031088,-0.0371105075228126,0.116041545864233,-0.0412711976480402,-0.110751670888394,-0.108147424746442,0.00143436994537187,-0.000305185094759972,0.0731935585599333
1.47,1,0.00135298725343588,0.0064800968454034,-0.00128177739799188,0.00734478794722332,0.000132246874395988,-0.00356049277219967,0.011342712688579,-0.165217037466557,0.0287586087628814,0.0691142511266416,0.0227871537420779,-0.179662465285195,-0.103447574287138,-0.10467848750267,-0.00286873989074374,-0.00601214636677145,0.124607074190497
1.5,1,0.00373343099256366,0.00250251777703177,-0.00447604805647959,0.00721254107282734,0.000152592547379986,-0.00485244300668355,-0.00774152857041129,-0.154474522131006,-0.010467848750267,0.0241706595049898,0.0054628131962035,-0.0252591530096337,-0.0987884151738029,-0.102450636310923,-0.00341807306131169,-0.00585955381939146,0.157912940865301
1.53,1,0.00456760358490758,0.000203456729839981,-0.00256355479598376,0.00701925717947935,0.000152592547379986,-0.00515762810144353,-0.0116072064373709,-0.165298420158493,-0.0123396506647949,0.0359406313262327,0.0181178217922503,-0.010579749951679,-0.0950855026907153,-0.0995717235836868,-0.00228888821069979,-0.00564592425305948,0.183517970315663
1.56,1,0.00497451704458754,0.000152592547379986,-0.00246182643106377,0.00689718314157537,0.000152592547379986,-0.00549333170567949,-0.010549231442203,-0.160334075950397,-0.011159601631723,0.0244961902727337,0.0397350993377483,-0.0097964415417951,-0.0895413068025758,-0.0944344411552273,-0.00262459181493576,-0.00564592425305948,0.201798557491785
1.59,1,0.00521866512039552,0.000152592547379986,-0.00297046825566373,0.00678528194016338,0.000152592547379986,-0.00557471439761549,-0.00835189875993123,-0.161188594215725,-0.0102643920204271,0.000732444227423933,0.0426241849014761,-0.0144047364726707,-0.0816268400118005,-0.086733603930784,-0.00274666585283975,-0.00564592425305948,0.219163589383628
1.62,1,0.0054424675232195,0.000152592547379986,-0.00291960407320373,0.00671407208471938,0.000152592547379986,-0.00564592425305948,-0.00660217088330739,-0.161269976907661,-0.0102643920204271,-0.0097964415417951,0.0426547034109521,-0.00402844325083163,-0.0735190893276772,-0.0788700013224687,-0.00274666585283975,-0.00564592425305948,0.232052573218991
1.65,1,0.0054119490137435,0.000152592547379986,-0.00288908556372773,0.00671407208471938,0.000152592547379986,-0.00564592425305948,-0.0054221218502355,-0.160537532680237,-0.00949125644703513,-0.010335601875871,0.0384838404492325,-0.00197353027944782,-0.065614795373394,-0.0709453616952015,-0.00274666585283975,-0.00564592425305948,0.246701457767469
1.68,1,0.00491348002563555,0.000152592547379986,-0.00206508580787581,0.00671407208471938,0.000152592547379986,-0.0054729860326955,-0.00509659108249153,-0.159967853836685,-0.00949125644703513,-0.0138859218115787,0.0313526820683411,-0.00515762810144353,-0.0585853653574226,-0.0634174626911222,-0.00259407330545976,-0.00564592425305948,0.265439822585732
1.71,1,0.00417086296171962,0.000152592547379986,-0.00223802402823979,0.00690735597806736,0.000152592547379986,-0.00556454156112349,-0.00277718436231574,-0.159805088452813,-0.00965402183090711,-0.0172429578539384,0.0181279946287423,-0.00729392376476333,-0.0519526759646392,-0.0560421562344228,-0.0021261228268278,-0.00564592425305948,0.291695913571581
1.74,1,0.00296029541917173,0.000152592547379986,-0.00173955504013184,0.00701925717947935,0.000152592547379986,-0.0054526403597115,-0.00135298725343588,-0.160130619220557,-0.0087588122196112,-0.0226447340311899,-0.00681580044963937,-0.00363170262764367,-0.0460015666168198,-0.0488804793440555,-0.00140385143589587,-0.00564592425305948,0.318318226671143
1.77,1,0.00129195023448388,0.000152592547379986,1.01728364919991e-05,0.00707012136193935,0.000152592547379986,-0.00569678843551948,-0.00261441897844376,-0.159764397106845,-0.00920641702525915,-0.032746360667745,-0.0291553493860693,-0.00372325815607166,-0.0421765800958281,-0.04340749331136,-0.000457777642139958,-0.00564592425305948,0.339121677297281
1.8,1,-0.000935900957263914,0.000152592547379986,0.000152592547379986,0.00727357809177933,0.000152592547379986,-0.00572730694499547,-0.0125837987406028,-0.161229285561693,-0.00749738049460331,-0.0354218166651407,-0.0120344655700349,-0.00445570238349559,-0.04325490076398,-0.0421257159133681,0.000457777642139958,-0.00592059083834346,0.363099052908923
1.83,1,-0.00340790022481969,0.000152592547379986,0.000152592547379986,0.00752789900407931,0.000152592547379986,-0.00580868963693147,-0.0076194545325073,-0.160415458642333,-0.00782291126234728,-0.0398775190486363,0.0194199448632262,-0.00427259132663961,-0.0456760358490758,-0.0420646788944161,0.00183111056855983,-0.00610370189519944,0.386730552079836
1.86,1,-0.0054119490137435,0.000152592547379986,0.00223802402823979,0.00787377544480728,0.000152592547379986,-0.00612404756818344,-0.00411999877925962,-0.159764397106845,-0.00717184972685934,-0.0416170740887682,0.0129398480178228,-0.00366222113711966,-0.0420748517309081,-0.0364187546413567,0.00314340647602771,-0.00634784997100742,0.406710002950123
1.89,1,-0.00712098554439934,0.000152592547379986,0.00401827041433963,0.00841293577888323,0.0021769870092878,-0.00645975117241941,-0.00452691223893958,-0.159764397106845,-0.00574765261797947,-0.0423189998067161,0.00745668914863531,-0.0043031098361156,-0.0391755933306884,-0.0318409782199571,0.00415051728873562,-0.0065614795373394,0.426516515600045
1.92,1,-0.00860621967223121,0.000152592547379986,0.00468967762281157,0.0103254290393791,0.00596128218431145,-0.0086672566911832,-0.00635802280749942,-0.160171310566525,-0.00493382569861955,-0.0396435438093204,0.010691651153091,-0.00362152979115167,-0.0374665568000326,-0.0286365347249774,0.00517797377442752,-0.0144352549821467,0.444970040996531
1.95,1,-0.00991851557969909,0.000152592547379986,0.0054017761772515,0.0100304167811111,0.000152592547379986,-0.00963367615792311,-0.00530004781233151,-0.159683014414909,-0.00521866512039552,-0.0381684825179805,0.00823999755851924,-0.00426241849014761,-0.0363271991129287,-0.0261747082939136,0.00595110934781945,-0.00845362712485122,0.463118381298257
1.98,1,-0.011159601631723,0.000152592547379986,0.00609352905870744,0.00986765139723909,0.000152592547379986,-0.0086469110181992,-0.00517797377442752,-0.160456149988301,-0.00420138147119561,-0.0369579149754326,0.00387585070345164,-0.00626646727907142,-0.0348317921486048,-0.0234382152775658,0.00665303506576739,-0.00808740501113926,0.479486475213884
2.01,1,-0.0121463667714469,0.000152592547379986,0.00689718314157537,0.0101117994730471,0.000783308409883928,-0.00842310861537523,-0.00493382569861955,-0.160252693258461,-0.00424207281716361,-0.0345876440727968,0.00678528194016338,-0.0043539740185756,-0.0336720887885169,-0.021332438123722,0.00731426943774733,-0.00817896053956725,0.491988891262551
2.04,1,-0.0130212307097588,0.000152592547379986,0.0075584175135553,0.0122786136458429,0.00731426943774733,-0.011139255958739,-0.00774152857041129,-0.160334075950397,-0.00257372763247576,-0.0307524847153132,0.00721254107282734,-0.00339772738832769,-0.0331532741274249,-0.0199184138513342,0.00790429395428327,-0.0159103162734865,0.496759951577298
2.07,1,-0.0137435021006907,0.000152592547379986,0.00808740501113926,0.0122074037903989,0.000152592547379986,-0.0118411816766869,-0.0054628131962035,-0.159805088452813,-0.00245165359457177,-0.0261136712749616,0.0115156509089429,-0.00310271513005971,-0.0337941628264209,-0.0198268583229062,0.00836207159642323,-0.0102237006744591,0.496912544124678
2.1,1,-0.0143843907996867,0.000152592547379986,0.00850449130731122,0.0122074037903989,0.000152592547379986,-0.010813725190995,-0.00509659108249153,-0.159560940377005,-0.00228888821069979,-0.0235094251330098,0.021332438123722,-0.00207525864436781,-0.0319427065848771,-0.0173141677093824,0.0087282937101352,-0.0101016266365551,0.49778740806299
2.13,1,-0.0148930326242866,0.000152592547379986,0.00880967640207119,0.0145268105105747,0.00797550380972727,-0.0139571316670227,-0.00664286222927539,-0.160293384604429,-0.00273649301634775,-0.02132226528723,0.0209356975005341,0.000223802402823979,-0.0307321390423292,-0.0156153040152186,0.00894192327646718,-0.0178126366974904,0.496576840520442
2.16,1,-0.0152389090650146,0.000152592547379986,0.00924710837122715,0.0144962920010987,0.000162765383871985,-0.0143640451267027,-0.00411999877925962,-0.160456149988301,-0.0021668141727958,-0.0155135756502986,0.0152897732474746,-9.15555284279916e-05,-0.0299488306324452,-0.0145166376740827,0.00930814539017914,-0.0125125888851588,0.496220791243222
2.19,1,-0.0154728843043306,0.000152592547379986,0.00929797255368714,0.0156559953611866,0.00700908434298736,-0.0136112552262947,-0.00497451704458754,-0.160293384604429,-0.00196335744295582,-0.0142623167617827,0.022197129225542,0.00195318460646382,-0.0277921892961414,-0.0121056754254789,0.00930814539017914,-0.0172836491999064,0.494755902788374
2.22,1,-0.0156559953611866,0.000152592547379986,0.00939970091860714,0.0169479455956704,0.0011291848506119,-0.0171005381430504,-0.00603249203975545,-0.160089927874589,-0.000946073793755913,-0.0075889360230313,0.0181686859747103,-0.00135298725343588,-0.0277921892961414,-0.0119123915321309,0.00930814539017914,-0.0161239458398185,0.496129235714794
2.25,1,-0.0158391064180425,0.000152592547379986,0.00952177495651112,0.0170903653065584,0.000152592547379986,-0.0154627114678386,-0.00383515935748365,-0.160618915372173,-0.000946073793755913,-0.00375377666554765,0.0151880448825546,-6.10370189519944e-05,-0.0263578193507696,-0.0103152562028871,0.0097557501958271,-0.0144962920010987,0.495630766726686
2.28,1,-0.0158696249275185,0.000152592547379986,0.00973540452284311,0.0182195501571703,0.00700908434298736,-0.0154830571408226,-0.00359101128167567,-0.159357483647165,-0.000823999755851924,-0.00159713532924385,0.0171717479984944,-0.00338755455183569,-0.0247199926755577,-0.00859604683573921,0.00991851557969909,-0.0193589078442742,0.492192347992391
2.31,1,-0.0158696249275185,0.000152592547379986,0.00991851557969909,0.0193080436618142,0.0011291848506119,-0.0195623645741142,-0.00367239397361166,-0.160293384604429,-0.00175990071311584,0.000559506007059949,0.00858587399924721,-0.00339772738832769,-0.0235806349884538,-0.00750755333109531,0.00991851557969909,-0.0182602415031383,0.496230964079714
2.34,1,-0.0157678965625985,0.000152592547379986,0.00972523168635111,0.0192266609698782,0.000152592547379986,-0.0172226121809544,-0.00293994974618773,-0.159560940377005,-0.00114953052359589,0.000793481246375927,-0.00152592547379986,-0.00443535671051159,-0.022217474898526,-0.00620543026011943,0.00967436750389111,-0.0163274025696585,0.500340790022482
2.37,1,-0.0156763410341706,0.000152592547379986,0.00950142928352713,0.0191249326049582,0.000152592547379986,-0.0165918963184505,-0.00355031993570767,-0.159967853836685,-0.00208543148085981,0.0011088391776279,-0.0119123915321309,-0.00771101006093529,-0.02223782057151,-0.00637836848048341,0.00930814539017914,-0.0163274025696585,0.507156590472121
2.4,1,-0.0154932299773146,0.000152592547379986,0.00929797255368714,0.0190740684224982,0.000152592547379986,-0.0164087852615945,-0.00399792474135563,-0.159642323068941,-0.00175990071311584,0.00185145624154383,-0.0173853775648264,-0.0097455773593351,-0.0231228573463139,-0.00740582496617532,0.00930814539017914,-0.0163274025696585,0.507644886623737
2.43,1,-0.0152694275744906,0.000152592547379986,0.00946073793755913,0.0190740684224982,0.000152592547379986,-0.0163884395886105,-0.00456760358490758,-0.160496841334269,-0.00184128340505183,0.00184128340505183,-0.0170801924700664,-0.00912503433332316,-0.0240384126305938,-0.00856552832626321,0.00930814539017914,-0.0163274025696585,0.509384441663869
2.46,1,-0.0150252794986826,0.000152592547379986,0.00936918240913114,0.0190232042400382,0.000152592547379986,-0.0163477482426425,-0.00513728242845953,-0.159357483647165,-0.00127160456149988,0.0021566413363038,-0.0144861191646067,-0.00895209611295918,-0.0255745109408856,-0.010345774712363,0.00924710837122715,-0.0163274025696585,0.508173874121321
2.49,1,-0.0148828597877946,0.000152592547379986,0.00902330596840317,0.0189519943845943,0.000152592547379986,-0.0164189580980865,-0.00513728242845953,-0.160171310566525,-0.0010681478316599,0.00187180191452783,-0.00960315764844712,-0.00717184972685934,-0.0266731772820215,-0.0115970336008789,0.00885036774803919,-0.0163274025696585,0.511490218817713
2.52,1,-0.0146285388754947,0.000152592547379986,0.00901313313191117,0.0189214758751183,0.000152592547379986,-0.0163579210791345,-0.00554419588813949,-0.160578224026205,-0.00167851802117985,0.00533056632180751,-0.00362152979115167,-0.00129195023448388,-0.0274564856919055,-0.0125532802311268,0.00885036774803919,-0.0163274025696585,0.513534958952605
2.55,1,-0.0144352549821467,0.000152592547379986,0.00895209611295918,0.0189214758751183,0.000152592547379986,-0.0164494766075625,-0.00554419588813949,-0.159764397106845,-0.0010681478316599,0.0075787631865393,0.00154627114678386,0.0010884935046439,-0.0280159916989654,-0.0133569343139948,0.00885036774803919,-0.0163274025696585,0.511937823623361
2.58,1,-0.0142216254158147,0.000152592547379986,0.00884019491154719,0.0189214758751183,0.000152592547379986,-0.0163172297331665,-0.0053814305042675,-0.159601631722973,-0.000986765139723909,0.00853500981678721,0.00487278867966755,0.00169886369416384,-0.0281075472273934,-0.0136316008992787,0.0087588122196112,-0.0163274025696585,0.513016144291513
2.61,1,-0.0139673045035147,0.000152592547379986,0.00852483698029522,0.0189214758751183,0.000152592547379986,-0.0163172297331665,-0.00562557858007548,-0.159316792301197,-0.00119022186956389,0.0097862687053031,0.00813826919359925,0.00371308531957966,-0.0282499669382814,-0.0140792057049267,0.00839259010589923,-0.0163274025696585,0.511134169540493
2.64,1,-0.0136519465722627,0.000152592547379986,0.00846379996134322,0.0189418215481023,0.000152592547379986,-0.0164189580980865,-0.00473036896877956,-0.160578224026205,-0.00123091321553189,0.0123396506647949,0.00472019613228757,0.0032451348409477,-0.0278023621326334,-0.0139367859940387,0.00839259010589923,-0.0163274025696585,0.510066021708833
2.67,1,-0.0134077984964548,0.000152592547379986,0.00843328145186722,0.0190740684224982,0.000152592547379986,-0.0163680939156265,-0.00448622089297159,-0.160374767296365,-0.00163782667521185,0.0119123915321309,0.00160730816573585,0.00204474013489181,-0.0273547573269855,-0.0136926379182307,0.00836207159642323,-0.0163274025696585,0.510513626514481
2.7,1,-0.0132043417666148,0.000152592547379986,0.00811792352061525,0.0190740684224982,0.000152592547379986,-0.0163680939156265,-0.00460829493087558,-0.159845779798781,-0.000823999755851924,0.010711996826075,0.00293994974618773,0.00194301176997182,-0.0269274981943215,-0.0134586626789148,0.00793481246375927,-0.0163274025696585,0.510839157282225
2.73,1,-0.0124210333567309,0.00165817234819585,0.00792463962726727,0.0190740684224982,0.000152592547379986,-0.0164189580980865,-0.00473036896877956,-0.160374767296365,-0.00289925840021973,0.0097862687053031,0.00334686320586769,0.00276701152582375,-0.0266731772820215,-0.0140690328684347,0.00770083722444329,-0.0163274025696585,0.511449527471745
2.76,1,-0.0119937742240669,0.00043743196915596,0.00455743074841558,0.0190740684224982,0.000152592547379986,-0.0163782667521185,-0.0043641468550676,-0.160618915372173,-0.00249234494053977,0.00833155308694723,0.00283822138126774,0.00153609831029186,-0.0263069551683096,-0.0140995513779107,0.00621560309661143,-0.0163274025696585,0.513372193568733
2.79,1,-0.010854416536963,0.00415051728873562,0.00473036896877956,0.0189519943845943,0.000152592547379986,-0.0163986124251025,-0.00521866512039552,-0.159642323068941,-0.0021261228268278,0.00630715862503942,0.00604266487624744,0.00194301176997182,-0.0260628070925016,-0.0149845881527146,0.00408948026978362,-0.0163274025696585,0.514898119042533
2.82,1,-0.010518712932727,0.00182093773206783,0.00699891150649536,0.0189825128940703,0.000152592547379986,-0.0163172297331665,-0.00477106031474756,-0.160293384604429,-0.00285856705425174,0.00402844325083163,0.00466933194982757,0.0032349620044557,-0.0259610787275816,-0.0152389090650146,0.00668355357524339,-0.0163274025696585,0.519404685608488
2.85,1,-0.0101830093284911,0.00138350576291187,0.00482192449720756,0.0190740684224982,0.000152592547379986,-0.0163884395886105,-0.00289925840021973,-0.160171310566525,-0.00289925840021973,0.0032146163314717,-0.00120039470605589,0.0022075055187638,-0.0256152022868536,-0.0152083905555386,0.00523901079337952,-0.0163274025696585,0.517675303404848
2.88,1,-0.010416984567807,0.000162765383871985,0.00578834396394747,0.0190740684224982,0.000152592547379986,-0.0163375754061505,-0.00379446801151565,-0.160293384604429,-0.00249234494053977,-0.000966419466739911,-0.00444552954700359,0.000773135573391929,-0.0247912025310017,-0.0141504155603707,0.00634784997100742,-0.0163274025696585,0.516190069277016
2.91,1,-0.010569577115187,0.000152592547379986,0.00639871415346741,0.0189418215481023,0.000152592547379986,-0.0163986124251025,-0.00371308531957966,-0.160130619220557,-0.00334686320586769,-0.00785342977182328,-0.00810775068412325,-0.000233975239315978,-0.0246996470025737,-0.0139164403210547,0.00640888698995941,-0.0163274025696585,0.514460687073377
2.94,1,-0.010773033845027,0.000152592547379986,0.00645975117241941,0.0189214758751183,0.000152592547379986,-0.0163375754061505,-0.00395723339538764,-0.160334075950397,-0.00253303628650777,-0.00997955259865108,-0.0130619220557268,0.00011190120141199,-0.0247403383485417,-0.0137536749371827,0.00640888698995941,-0.0163274025696585,0.516393526006857
2.97,1,-0.011027354757327,0.000152592547379986,0.0065004425183874,0.0189214758751183,0.000152592547379986,-0.0164596494440545,-0.00452691223893958,-0.160171310566525,-0.00184128340505183,-0.0133569343139948,-0.0166020691549425,-0.000986765139723909,-0.0255338195949176,-0.0143030081077507,0.00665303506576739,-0.0163274025696585,0.517258217108676
3,1,-0.011373231198055,0.000152592547379986,0.00684631895911537,0.0188706116926583,0.000152592547379986,-0.0164291309345785,-0.00473036896877956,-0.159560940377005,-0.00265511032441176,-0.0169988097781304,-0.0177414268420464,-0.00101728364919991,-0.0266528316090375,-0.0150456251716666,0.00686666463209937,-0.0163274025696585,0.520106611326436
3.03,1,-0.0132145146031068,-0.00509659108249153,0.00744651631214331,0.0188095746737063,0.000152592547379986,-0.0162663655507065,-0.0054628131962035,-0.159601631722973,-0.00249234494053977,-0.0231330301828059,-0.0180873032827743,-0.00354014709921567,-0.0278837448245694,-0.0144250821456547,0.0098269600512711,-0.0163274025696585,0.526098412020224
3.06,1,-0.0145980203660187,-0.00319427065848771,0.0119123915321309,0.0189214758751183,0.000152592547379986,-0.0166325876644185,-0.00827051606799524,-0.159886471144749,-0.00155644398327586,-0.0250150049338257,-0.0098066143782871,-0.00972523168635111,-0.0299488306324452,-0.0151066621906186,0.011291848506119,-0.0163274025696585,0.54750205999939
3.09,1,-0.0147607857498906,5.08641824599953e-05,0.00967436750389111,0.0189214758751183,0.000152592547379986,-0.0161951556952625,-0.00534073915829951,-0.160171310566525,-0.000661234371979939,-0.021963153986226,-0.00229906104719179,-0.0123701691742709,-0.0313933734143091,-0.0163884395886105,0.00897244178594317,-0.0163274025696585,0.568580177210812
3.12,1,-0.0184128340505183,-0.00983713288776309,0.0114953052359589,0.0189214758751183,0.000152592547379986,-0.0162256742047385,-0.00574765261797947,-0.159154026917325,-5.08641824599953e-05,-0.0181686859747103,-0.000681580044963937,-0.00952177495651112,-0.0312814722128971,-0.0126550085960468,0.0147811314228746,-0.0163274025696585,0.599281797743665
3.15,1,-0.0223192032634459,-0.0117292804752749,0.0182704143396303,0.0189723400575783,0.000152592547379986,-0.0163070568966745,-0.00879950356557919,-0.159967853836685,-0.000457777642139958,-0.0142521439252907,0.0196539201025422,-0.0076601458784753,-0.0309864599546292,-0.00844345428835922,0.0196234015930662,-0.0163274025696585,0.630919319233782
3.18,1,-0.0272428561255735,-0.0145878475295267,0.021566413363038,0.0191757967874182,0.000152592547379986,-0.0165410321359905,-0.00355031993570767,-0.158991261533453,-0.00196335744295582,-0.0202744631285541,0.0233364869126459,-0.0100405896176031,-0.0296436455376853,-0.00223802402823979,0.0232652770572019,-0.0163274025696585,0.668680888292082
3.21,1,-0.0345164342173528,-0.0224616229743339,0.0286467075614694,0.021556240526546,0.00796533097323527,-0.0191757967874182,-0.00558488723410749,-0.160415458642333,-0.00180059205908383,-0.0298267565945413,0.0143945636361787,-0.00747703482161931,-0.0285246335235654,0.00606301054923144,0.0313119907223731,-0.0239570299386578,0.731966104108809
3.24,1,-0.0414746543778802,-0.021546067690054,0.0363475447859127,0.0231330301828059,0.00737530645669932,-0.021444339325134,-0.00599180069378745,-0.160496841334269,-0.000986765139723909,-0.0362458164209927,0.0268155969929095,-0.0119937742240669,-0.0274971770378735,0.0140079958494827,0.0364289274778486,-0.0244148075807978,0.797031566311635
3.27,1,-0.0477411216569516,-0.0196132287565742,0.0374970753095085,0.0269987080497655,0.0141809340698467,-0.0269783623767815,-0.00342824589780368,-0.161229285561693,0.00202439446190781,-0.0308542130802332,0.0414136173589282,-0.0117496261482589,-0.0253201900285857,0.0224616229743339,0.0389619637643564,-0.0320342621133051,0.855281228064821
3.3,1,-0.0515355896684673,-0.0117394533117669,0.0379141616056805,0.0318918424024171,0.0160018718019145,-0.0359711498357087,-0.00989816990671509,-0.162165186518957,0.00381481368449965,-0.0143640451267027,0.0673848689230018,-0.010864589373455,-0.0223802402823979,0.0292062135685293,0.0378327789137445,-0.0387178156885484,0.895179092786442
3.33,1,-0.0534175644194871,-0.00400809757784763,0.0360525325276447,0.0348623106580808,0.00930814539017914,-0.0374156926175726,-0.00428276416313161,-0.160537532680237,0.00316375214901171,0.0064800968454034,0.0738649657684052,-0.00845362712485122,-0.0194097720267342,0.0340383109022289,0.0343943601794488,-0.0376394950203965,0.910875779493596
3.36,1,-0.0581987975707266,-0.0146488845484787,0.0396944079917803,0.0384431491032645,0.00901313313191117,-0.0395926796268604,-0.00123091321553189,-0.159276100955229,0.00401827041433963,0.0286060162155014,0.0421765800958281,-0.00227871537420779,-0.0161544643492945,0.0421358887498601,0.0420239875484481,-0.0405692719300923,0.91486353139846
3.39,1,-0.0636107465844701,-0.0170598467970824,0.0467848750267037,0.0389416180913724,0.0021871598457798,-0.0372224087242246,-0.0116072064373709,-0.161880347097181,0.00300098676513972,0.0398266548661763,0.0766523229672129,-0.0102440463474431,-0.0131636504206468,0.0504979603462834,0.0482497634815516,-0.0340586565752129,0.91094698934904
3.42,1,-0.0640888698995941,-0.00184128340505183,0.0421562344228441,0.0426750490839361,0.0135603910438348,-0.0421664072593361,-9.15555284279916e-05,-0.158787804803613,0.00182093773206783,0.0524511449527472,0.11337626270333,-0.00696839299701936,-0.00565609708955148,0.0585039826654866,0.0406608274585203,-0.0479954425692516,0.908322397534104
3.45,1,-0.0641397340820541,0.000122074037903989,0.0391755933306884,0.0472324798323517,0.0171819208349864,-0.0503555406353954,0.000478123315123956,-0.159560940377005,0.000478123315123956,0.0670593381552578,0.139062674845627,-0.00621560309661143,0.000366222113711966,0.0646890672526221,0.0392162846766564,-0.0508540096235033,0.901974547563097
3.48,1,-0.0642414624469741,0.000152592547379986,0.0390942106387524,0.054597613452559,0.0267545599739575,-0.0643940549943541,0.00519831944741152,-0.160456149988301,-0.000376394950203965,0.0735902991831212,0.169194616534928,0.000590024516535946,0.0124515518662069,0.0769575080619729,0.0392162846766564,-0.0661844742169459,0.907549261960713
3.51,1,-0.0642516352834661,0.000152592547379986,0.0391755933306884,0.0620543026011943,0.0227159438866339,-0.0706096580909655,-0.000742617063915932,-0.161310668253629,-0.000905382447787917,0.0690939054536577,0.185064241462447,-0.00188197475101983,0.0211900184128341,0.0857366659545681,0.0392162846766564,-0.0701010162663656,0.906216620380261
3.54,1,-0.0643940549943541,0.000152592547379986,0.0390230007833084,0.0699585965554776,0.0258593503626616,-0.0787987914670247,0.00910468866033916,-0.159927162490717,-0.000661234371979939,0.0823287657297484,0.202429273354289,0.0021261228268278,0.033021027253029,0.097598193304239,0.0392162846766564,-0.0787987914670247,0.911669260739972
3.57,1,-0.0643940549943541,0.000152592547379986,0.0392874945321004,0.0804467909787286,0.032369965717541,-0.0923184911648915,0.00076296273689993,-0.161514124983469,0.00011190120141199,0.0945972065390993,0.225816624449395,-0.00246182643106377,0.0457574185410118,0.110405794447666,0.0392162846766564,-0.0935087130344554,0.909136224453464
3.6,1,-0.0643940549943541,0.000152592547379986,0.0390535192927844,0.0885443688263599,0.0266426587725456,-0.0954313791314432,0.00572730694499547,-0.162002421135085,-0.00334686320586769,0.105665252642394,0.252408419039481,-0.0188197475101983,0.053895687734611,0.118523717968281,0.0392162846766564,-0.0961333048493912,0.906287830235705
3.63,1,-0.0643126723024181,0.000152592547379986,0.0392162846766564,0.0994089581998149,0.0360321868546607,-0.110863572089806,0.00666320790225939,-0.163630074973805,-0.00550350454217149,0.0949125644703513,0.300617491175064,-0.0260119429100416,0.0679748934395377,0.132501195308288,0.0392162846766564,-0.111992756940418,0.902188177129429
3.66,1,-0.0643330179754021,0.000152592547379986,0.0392162846766564,0.109235918251086,0.0309254229356772,-0.117455570136621,0.00845362712485122,-0.168268888414157,-0.00603249203975545,0.110314238919238,0.352946562089907,-0.0229194006164739,0.0847600736513362,0.149296548356578,0.0392162846766564,-0.117170730714845,0.89349040192877
3.69,1,-0.0642414624469741,0.000152592547379986,0.0391145563117364,0.121097445600757,0.0368867051199886,-0.131148208054852,0.00169886369416384,-0.179255551825516,-0.00521866512039552,0.119561347290465,0.407584866888435,-0.0054526403597115,0.106519770907722,0.171025727103488,0.0392162846766564,-0.133691417177852,0.877224036378063
3.72,1,-0.0621458581296223,0.00677510910367138,0.0377819147312845,0.126265246538692,0.0114037497075309,-0.120090334788049,-0.00489313435265155,-0.207291889197465,-0.0114851323994669,0.153396201462854,0.471734773806981,0.0117292804752749,0.132521540981272,0.194911547186702,0.0360220140181687,-0.121524704733421,0.832962024801375
3.75,1,-0.0500198370311594,0.0375988036744285,0.0242723878699098,0.124505345825577,-0.0119225643686229,-0.106184067303486,-0.0204372285124261,-0.229712820825831,-0.0171819208349864,0.139479761141799,0.689708141321045,0.0411491236101362,0.166559851883501,0.21683400982696,0.0161748100222785,-0.104159672841578,0.657795953245644
3.78,1,-0.0192775251523382,0.0887274798832158,-0.00730409660125533,0.119245989359213,-0.0242622150334178,-0.0883612577695039,0.0161442915128025,-0.207291889197465,0.00682597328613137,0.0829086174097924,0.7355367697175,-0.0965707368185471,0.212897122104556,0.232388276823227,-0.0253710542110457,-0.0913520716981516,0.392976673685924
3.81,1,0.0265816217535936,0.133040355642364,-0.0733766696167893,0.0997751803135268,-0.0769371623889889,-0.0502945036164434,-0.075899533066805,-0.160537532680237,-0.0180771304462823,0.161097038687297,0.473240353607796,-0.0361847794020407,0.250068666646321,0.223578600421155,-0.0806807662180446,-0.0392773216956084,0.157119459618926
3.84,1,0.0478733685313476,0.0569882300281788,-0.0639362773522141,0.0690633869441817,-0.106723227637562,-0.021708833073926,-0.211686554562009,-0.124240852076785,-0.0144149093091627,0.0816777041942605,-0.226976327809483,-0.0602740562150944,0.255877356283252,0.208085370443841,-0.0631326232693462,0.0116682434563229,0.0549638355662709
3.87,1,0.0507624540950753,-0.000752789900407931,-0.0365001373332926,0.0416679382712282,-0.0819320251065605,0.00202439446190781,-0.160130619220557,-0.129896949166336,-0.0168970814132104,0.0673950417594938,-0.613656015706859,-0.228237759534491,0.227942747276223,0.177251503036592,-0.0314645832697531,0.0243842890713218,0.0244351532537818
3.9,1,0.0519323302916552,-0.00549333170567949,-0.0299793491419212,0.032766706340729,-0.0134383170059308,0.00601214636677145,-0.122816654967905,-0.137953835667999,-0.0186468092898343,0.0585243283384706,-0.789005198319447,-0.464410331532741,0.185572883287047,0.133721935687328,-0.0288908556372773,-0.0138554033021027,0.0101626636555071
3.93,1,0.0497248247728914,-0.0131534775841548,-0.0255439924314096,0.0315866573076571,-0.00551367737866349,-0.0130822677287108,-0.102267525254067,-0.159276100955229,-0.021495203507594,0.0164087852615945,-0.99562568030844,-0.633991515854366,0.131321146275216,0.0816573585212765,-0.0240485854670858,-0.0251879431541897,0.00562557858007548
3.96,1,0.043519394512772,-0.0235195979695018,-0.0184535253964863,0.0258695231991536,-0.021769870092878,-0.0134281441694388,-0.0787072359385968,-0.182470168156987,-0.0265409304076256,-0.0190740684224982,-1.15720084231086,-0.730714845220293,0.0662251655629139,0.0228278450880459,-0.0149540696432386,-0.00842310861537523,0.00253303628650777
3.99,1,0.0381990010274565,-0.0200099693797622,-0.0130924405652028,0.022156437879574,-0.00579851680043947,-0.00345876440727968,-0.0504267504908394,-0.203141371908729,-0.032848089032665,-0.0516678365428632,-1.24171676788639,-0.774630980356253,-0.00604266487624744,-0.0440992461928159,-0.0124006876837469,-0.0139876501764987,0.00181076489557583
4.02,1,0.0354828536840927,-0.00946073793755913,-0.0139774773400067,0.0199896237067782,-0.00565609708955148,-0.0086876023641672,-0.0361847794020407,-0.215552232428968,-0.0374055197810806,-0.0705994852544735,-1.31666005432295,-0.751294493443607,-0.0828984445733004,-0.118330434074933,-0.0159408347829625,-0.011373231198055,0.00167851802117985
4.05,1,0.0310068056276131,-0.0117801446577349,-0.0150456251716666,0.0187790561642303,-0.00670389924822738,-0.010600095624663,-0.0225531785027619,-0.227678253527431,-0.0393993957335124,-0.0693278806929736,-1.44091107923622,-0.681742810347809,-0.165857926165553,-0.196773176264738,-0.0128279468164108,-0.0122379222998749,0.00167851802117985
4.08,1,0.0175888342946664,-0.0346283354187648,-0.00397757906837163,0.0173955504013184,-0.000823999755851924,-0.0043234555090996,0.0532547990356151,-0.244402396720278,-0.0411491236101362,-0.0731833857234413,-1.26379182307403,-0.501012197230954,-0.247830642618081,-0.265358439893796,0.00289925840021973,-0.0133874528234708,0.00167851802117985
4.11,1,-0.000101728364919991,-0.0480259610787276,0.0183314513585823,0.0173955504013184,0.000152592547379986,-0.0098066143782871,0.0913012075156916,-0.223242896816919,-0.032807397686697,-0.0916877753023876,-1.05883968626972,-0.315683462019715,-0.318521683400983,-0.318236843979207,0.0240791039765618,-0.0149540696432386,0.00167851802117985
4.14,1,-0.00963367615792311,-0.0236823633533738,0.021800388602354,0.0168055258847825,-0.00331634469639169,-0.0134688355154068,0.119785149693289,-0.201676483453881,-0.0303659169286172,-0.117028311003957,-0.666147852005575,-0.0887478255561998,-0.369111199275694,-0.359233375041963,0.0194097720267342,-0.0143335266172267,0.00167851802117985
4.17,1,-0.0132755516220588,-0.0043946653645436,0.0146895758944466,0.0149540696432386,-0.00421155430768761,-0.00492365286212755,0.104647968993194,-0.17123935666982,-0.0265002390616576,-0.141575365459151,-0.41122674235257,0.116204311248105,-0.400189214758751,-0.386638996551408,0.011261329996643,-0.00753807184057131,0.00167851802117985
4.2,1,-0.0175176244392224,-0.00695822016052736,0.011098564612771,0.0148116499323506,0.000152592547379986,-0.00641905982645141,0.0901211584826197,-0.155735953856014,-0.0239366842656738,-0.158085879085665,-0.236060670796838,0.251553900774153,-0.418988616595965,-0.401308226772871,0.0133874528234708,-0.0125125888851588,0.00167851802117985
4.23,1,-0.022105573697114,-0.00970488601336711,0.0173039948728904,0.0148014770958586,0.000152592547379986,-0.00986765139723909,0.0826339508245084,-0.154026917325358,-0.0201523890906501,-0.15240943632313,-0.054190699992879,0.238542842900886,-0.427666046123641,-0.405336670023703,0.0186671549628183,-0.0125125888851588,0.00167851802117985
4.26,1,-0.0232754498936939,-0.000640888698995941,0.0160222174748985,0.0136519465722627,-0.00666320790225939,-0.0114240953805149,0.0637531662953581,-0.158096051922157,-0.0175074516027304,-0.134128849147008,0.122185939105401,0.100802636799219,-0.424909207434309,-0.401420127974283,0.0148421684418266,-0.00791446679077527,0.00167851802117985
4.29,1,-0.0241808323414818,0.000152592547379986,0.0148421684418266,0.0124617247026989,-0.000823999755851924,-0.00267545599739575,0.0470290231025117,-0.164850815352845,-0.0179143650624104,-0.104739524521622,0.263181452884508,-0.0565202795495468,-0.413047680084638,-0.38863287250384,0.0148014770958586,-0.00891140476699118,0.00158696249275185
4.32,1,-0.0249336222418897,0.000152592547379986,0.0147607857498906,0.0125125888851588,0.000152592547379986,-0.00673441775770338,0.0334381135492009,-0.1696117028311,-0.0186875006358023,-0.0810164698222806,0.383149713634653,-0.143579414248075,-0.393302204453668,-0.368154952645446,0.0151982177190466,-0.010528885769219,0.00151575263730786
4.35,1,-0.0254524369029817,0.000152592547379986,0.0153508102664266,0.0126041444135868,0.000152592547379986,-0.00893175043997518,-0.0166936246833705,-0.175064343190812,-0.0313832005778171,-0.0735190893276772,0.446414583778395,-0.0780256558936328,-0.367900631733146,-0.342244738100325,0.0155644398327586,-0.010528885769219,0.00164799951170385
4.38,1,-0.0266019674265776,-0.0021566413363038,0.0159204891099785,0.010498367259743,-0.010905280719423,-0.00849431847081922,-0.236345510218614,-0.180272835474715,-0.0776492609434289,-0.0452894680623798,0.283466088849554,0.209418012024293,-0.344238614052756,-0.317402671386863,0.0163680939156265,-0.00386567786695964,0.00697856583351136
4.41,1,-0.032532731101413,-0.0178838465529344,0.0241197953225298,0.00578834396394747,-0.0156254768517106,0.0032451348409477,-0.167129530727053,-0.154718670206814,-0.0520137129835912,-0.0971200699891151,0.151707510605182,0.367493718273466,-0.334279407127089,-0.301543219295836,0.0288094729453413,0.00573747978148747,0.0549638355662709
4.44,1,-0.0284432508316294,0.0150557980081586,0.0210781172114221,0.00173955504013184,-0.0117699718212429,0.00444552954700359,-0.0778934090192368,-0.127780999176,-0.0295927813552253,0.000854518265327921,0.209326456495865,-0.0659301533046459,-0.32252978097883,-0.293862727744377,0.0119734285510829,0.00858587399924721,0.0805485193436486
4.47,1,-0.0289824111657053,-0.00137333292641987,0.011088391776279,-0.00188197475101983,-0.0138147119561347,0.00555436872463149,-0.0454624062827438,-0.144098228909167,-0.0166529333374025,0.010467848750267,0.174942269152908,-0.230282499669383,-0.307941933449304,-0.278776411226742,0.0167444888658305,0.0101219723095391,0.109846288440606
4.5,1,-0.0270597450687175,0.00620543026011943,0.0173243405458744,-0.00931831822667114,-0.0261747082939136,0.0141198970508947,-0.0634072898546302,-0.150283313496302,0.0114240953805149,0.0194504633727022,0.170740887681712,-0.186997080395927,-0.298257393108921,-0.270994191310363,0.0141402427238787,0.0250760419527777,0.139856156092003
4.53,1,-0.0281685842463454,-0.00101728364919991,0.0168156987212745,-0.0169886369416384,-0.022227647735018,0.0274361400189215,-0.0369986063214006,-0.157567064424573,0.00943021942808313,-0.0153915016123946,0.196773176264738,0.0279753003529974,-0.28583635975219,-0.25744397310302,0.0179550564083783,0.032848089032665,0.178828292692852
4.56,1,-0.0272530289620655,0.00205491297138381,0.0149540696432386,-0.02183090711183,-0.0144352549821467,0.0290536210211493,-0.0522985524053672,-0.158340199997965,-0.0101830093284911,-0.0233771782586139,0.202276680806909,0.0314544104332611,-0.271584215826899,-0.244148075807978,0.0152185633920306,0.0288094729453413,0.232083091728467
4.59,1,-0.0273445844904935,0.000203456729839981,0.0162358470412305,-0.0286975717439294,-0.0232652770572019,0.0359813226722007,-0.0528275399029511,-0.15174820195115,-0.00920641702525915,-0.0229194006164739,0.199509669281086,-0.0684224982451857,-0.263557847834712,-0.235999633777886,0.0165715506454665,0.0414339630319122,0.289691864782657
4.62,1,-0.0274666585283975,0.000152592547379986,0.0168665629037344,-0.0351776685893328,-0.0177414268420464,0.043488876003296,-0.0406608274585203,-0.161880347097181,-0.00257372763247576,-0.032451348409477,0.2218695638905,-0.0839971109144363,-0.251319925534837,-0.223619291767123,0.0166325876644185,0.0451572211879838,0.354950610878831
4.65,1,-0.0274666585283975,0.000152592547379986,0.0166427605009105,-0.0389009267454044,-0.0127160456149988,0.0416679382712282,-0.0426547034109521,-0.157282225002798,-0.0022075055187638,-0.0350861130609048,0.220760724712872,-0.0886257515182958,-0.234728029216386,-0.207098605304117,0.0166325876644185,0.0416882839442122,0.428133996602273
4.68,1,-0.0275582140568255,0.000152592547379986,0.0167444888658305,-0.0442009745577359,-0.0166325876644185,0.0491653187658315,-0.0388297168899604,-0.158462274035869,0.00043743196915596,-0.021556240526546,0.213914405753756,-0.106631672109134,-0.222510452589496,-0.194738608966338,0.0166325876644185,0.0513829971210873,0.50083925901059
4.71,1,-0.0278328806421094,0.000152592547379986,0.0168869085767184,-0.0480157882422356,-0.00961333048493912,0.0507014170761233,-0.0348419649850968,-0.160985137485885,0.00442518387401959,-0.0119530828780989,0.212164677877133,-0.0790429395428327,-0.206193222856329,-0.178136539811396,0.0169174270861944,0.0507624540950753,0.564409314249092
4.74,1,-0.0282601397747734,0.000152592547379986,0.0173752047283344,-0.0506403800571713,-0.00745668914863531,0.0489516891994995,-0.032807397686697,-0.160171310566525,0.00239061657561978,-0.00140385143589587,0.202948088015381,-0.043193863745028,-0.190343943601794,-0.161860001424197,0.0172429578539384,0.0500605283771274,0.613991719311095
4.77,1,-0.0313018178858811,-0.00769066438795129,0.0206203395692821,-0.0518814661091952,-0.000478123315123956,0.0492975656402275,-0.0313832005778171,-0.157933286538285,0.000356049277219967,0.00658182521032339,0.201737520472833,-0.0428988514867601,-0.178380687887204,-0.146885586107974,0.0226955982136499,0.0471917884863837,0.645079907630645
4.8,1,-0.0317087313455611,-0.000701925717947935,0.02122053692231,-0.0519933673106072,0.000152592547379986,0.0459913937803278,-0.0351674957528408,-0.155369731742302,0.00011190120141199,0.00597145502080345,0.220068971831416,-0.0484328745384075,-0.16996775210832,-0.138035218359935,0.0200201422162542,0.0459303567613758,0.680084637999613
4.83,1,-0.0346181625822728,-0.00751772616758731,0.0225023143203019,-0.0520340586565752,0.000152592547379986,0.0461439863277078,-0.0296334727011933,-0.157811212500381,-0.0011088391776279,-0.00739565212968332,0.232123783074435,-0.0170395011240984,-0.15678375601469,-0.121982482375561,0.0245674001281777,0.0463372702210557,0.737052522354808
4.86,1,-0.0352081870988088,-0.000915555284279916,0.0233568325856299,-0.0510574663533433,0.0065106153548794,0.0458998382518998,-0.0279244361705374,-0.163345235552029,-0.000579851680043947,-0.0147913042593666,0.261858984140548,-0.0252489801731417,-0.144922228665019,-0.109500411999878,0.022268339080986,0.0422783084607481,0.820388398897265
4.89,1,-0.0355438907030447,0.000152592547379986,0.021668141727958,-0.0468662577186397,0.0156458225246946,0.0357575202693767,-0.0155135756502986,-0.163385926897997,0.00247199926755577,-0.00781273842585528,0.267830439161351,-0.00818913337605925,-0.124596901354005,-0.0888393810846278,0.021515549180578,0.032105471968749,0.896959339172541
4.92,1,-0.0358795943072807,0.000152592547379986,0.021637623218482,-0.0366730755536566,0.0398368277026683,0.0199387595243182,-0.0188502660196743,-0.162002421135085,0.00243130792158778,0.00720236823633534,0.277433596809798,-0.00405896176030763,-0.103874833419802,-0.0677409182002218,0.021922462640258,0.00753807184057131,0.936836858221178
4.95,1,-0.0361339152195807,0.000152592547379986,0.022054709514654,-0.0274971770378735,0.0239163385926898,0.000885036774803919,-0.0240994496495458,-0.158869187495549,0.00178024638609984,0.0264392020427056,0.251472518082217,0.00087486393831192,-0.0936307870723594,-0.0572934151229387,0.022125919370098,0.00491348002563555,0.948840805281737
4.98,1,-0.0363170262764367,0.000152592547379986,0.02213609220659,-0.0190130314035463,0.0336822616250089,0.0022278511917478,-0.00786360260831528,-0.157485681732637,7.12098554439934e-05,0.0344960885443688,0.251991332743309,0.000549333170567949,-0.076286100853501,-0.0397452721742403,0.022125919370098,-0.00238044373912778,0.947660756248665
5.01,1,-0.0365815200252286,0.000152592547379986,0.022105573697114,-0.00675476343068738,0.0392569760226244,-0.010427157404299,-0.0147404400769066,-0.158706422111677,-0.000742617063915932,0.0365815200252286,0.252754295480209,0.000305185094759972,-0.0609047720775984,-0.0240994496495458,0.0223700674459059,-0.021556240526546,0.944629250974049
5.04,1,-0.0367748039185766,0.000152592547379986,0.0224412773013499,0.00231940672017579,0.0269478438673055,-0.0187790561642303,-0.0196234015930662,-0.158625039419741,-0.00151575263730786,0.0383922849208045,0.250546789961445,-0.00173955504013184,-0.0506302072206793,-0.0136214280627867,0.0225836970122379,-0.0208441419721061,0.942960905789361
5.07,1,-0.0369172236294646,0.000152592547379986,0.0225430056662699,0.011068046103295,0.032074953459273,-0.021810561438846,0.00116987619657989,-0.158543656727805,-0.00261441897844376,0.0390331736198004,0.2578508865627,0.000844345428835922,-0.0384736676127405,-0.00142419710887987,0.0225836970122379,-0.0295724356822413,0.939298684652242
5.1,1,-0.0368867051199886,0.000152592547379986,0.0224717958108259,0.0253710542110457,0.0463067517115797,-0.0449537644581439,-0.0102643920204271,-0.161310668253629,0.000233975239315978,0.0376801863663645,0.263150934375032,-0.00664286222927539,-0.0205898210598061,0.0163477482426425,0.0225836970122379,-0.054648477635019,0.944415621407717
5.13,1,-0.0367748039185766,0.000152592547379986,0.0226345611946979,0.0354523351746167,0.0318918424024171,-0.0513728242845953,0.000925728120771915,-0.159683014414909,0.0011291848506119,0.0587176122318186,0.264178390860724,-0.00366222113711966,-0.0075584175135553,0.0293282876064333,0.0225836970122379,-0.0518509475997192,0.946206040630309
5.16,1,-0.0369782606484166,0.000152592547379986,0.0224616229743339,0.0467543565172277,0.0343028046510208,-0.065726696574806,-0.000823999755851924,-0.162083803827021,3.05185094759972e-05,0.0721762749107334,0.26568397066154,-0.0145776746930347,0.00637836848048341,0.04356008585874,0.0225836970122379,-0.065686005228838,0.949441002634765
5.19,1,-0.0371308531957966,0.000152592547379986,0.0226142155217139,0.0596433403525905,0.0466526281523077,-0.0805078279976806,0.000681580044963937,-0.157689138462477,-0.00135298725343588,0.0835698517817723,0.290200506607257,-0.0188807845291503,0.0254219183935057,0.0627664011556342,0.0225836970122379,-0.0836207159642323,0.948901842300689
5.22,1,-0.0373546555986206,0.000152592547379986,0.0226650797041739,0.0712098554439935,0.0350454217149368,-0.0880560726747439,0.00483209733369956,-0.162572099978637,-0.00391654204941964,0.0910367137668996,0.310383414207383,-0.0274361400189215,0.0363475447859127,0.0739056571143732,0.0227668080690939,-0.08686585080518,0.949034089175085
5.25,1,-0.0376089765109205,0.000152592547379986,0.0230414746543779,0.0852076784569842,0.0460524307992798,-0.105349894711142,0.0010884935046439,-0.164077679779453,-0.00574765261797947,0.0968352305673391,0.357341227454451,-0.00598162785729545,0.054383983886227,0.0922167627999715,0.0230414746543779,-0.107659128594826,0.947202978606525
5.28,1,-0.0377819147312845,0.000152592547379986,0.0230007833084099,0.0992156743064669,0.0482701091545356,-0.117333496098717,0.00918607135227515,-0.160781680756045,-0.00570696127201147,0.100060019735303,0.402803633737195,-0.00556454156112349,0.0720135095268614,0.109998880987986,0.0230414746543779,-0.118981495610421,0.943123671173233
5.31,1,-0.0378429517502365,0.000152592547379986,0.0229499191259499,0.114068015584786,0.0476495661285236,-0.132989491459904,0.010935799228899,-0.165664642272205,-0.000661234371979939,0.109032461521246,0.450402335683259,-0.0301624601987772,0.0946378978850673,0.13271482487462,0.0230414746543779,-0.133406577756076,0.937040314951018
5.34,1,-0.0378429517502365,0.000152592547379986,0.0229702647989339,0.127740307830032,0.0378531245867285,-0.140263069551683,-0.00127160456149988,-0.185806858526363,-0.00269580167037975,0.146407462792851,0.511591947182633,-0.0304574724570452,0.121809544155197,0.159866125471765,0.0230414746543779,-0.141066723634551,0.920946887620675
5.37,1,-0.0368154952645446,0.0032959990234077,0.0225938698487299,0.138248847926267,0.032736187831253,-0.142755414492223,0.00666320790225939,-0.193334757530442,-0.0142928352712587,0.180272835474715,0.64892523982462,0.010813725190995,0.15647857091993,0.19352804142379,0.021942808313242,-0.145003611356955,0.896481215857417
5.4,2,-0.0282499669382814,0.0229194006164739,0.0149845881527146,0.143681142612995,0.00583920814640746,-0.137628304900255,-0.0190130314035463,-0.250221259193701,-0.0176702169866024,0.228858302560503,0.877824233731091,0.104800561540574,0.202531001719209,0.230994598223823,0.00768049155145929,-0.134250923184912,0.806563514104638
5.43,2,0.00271614734336375,0.086886196478164,-0.00612404756818344,0.139835810419019,-0.0227668080690939,-0.114953052359589,0.0414543087048962,-0.206355988240201,-0.054495885087639,0.177943255918048,0.787957396160772,0.163029877620777,0.253588468072553,0.251004567603585,-0.010834070863979,-0.128371023692536,0.513239946694337
5.46,2,0.0711488184250415,0.207688629820653,-0.00144454278186387,0.10701823989583,-0.141636402478103,-0.125176753034048,-0.0203965371664581,-0.258400219733268,-0.00208543148085981,0.119591865799941,0.853104241055534,0.243792026530758,0.302845342366812,0.231838943652659,0.0412813704845322,-0.14803511663157,0.269366537471643
5.49,2,0.180069378744875,0.359579251482691,0.054170354319895,0.032441175572985,-0.288165939308857,-0.136794132307911,-0.0807418032369966,-0.27866451002533,0.0466221096428317,0.209265419476913,0.970325835952839,0.0604673401084424,0.356496882025615,0.176498713136184,0.0560421562344228,-0.143996500544247,0.204443494979705
5.52,2,0.32776879177221,0.504074221015046,0.0243741162348298,-0.0664693136387219,-0.346944588559628,-0.097577847631255,-0.0339467553738009,-0.316100548315887,0.0164698222805465,0.180781477299315,1.2738731040376,-0.441735078992075,0.423342590614541,0.0956755272072512,0.0144861191646067,-0.0833562222154403,0.191351054414502
5.55,2,0.470269885352133,0.497868790754926,-0.010762861008535,-0.160140792057049,-0.313038524531795,-0.0310169784641051,-0.0394400870794804,-0.225155390077415,-0.0147811314228746,0.0132043417666148,1.39980264697206,-0.537909075187434,0.506861578213853,0.0366934212266406,-0.0169174270861944,0.0888495539211198,0.109429202144434
5.58,2,0.594999033580533,0.422966195664337,-0.0267647328104495,-0.225094353058463,-0.164311655018769,0.0958077740816472,-0.107638782921842,-0.0406608274585203,-0.00257372763247576,-0.13505457726778,0.675211849319946,-0.514959156061485,0.570268868068484,-0.0245165359457177,-0.0286568803979614,0.172144739117608,0.0274259671824295
5.61,2,0.693889177119256,0.334757530442213,-0.0261645354574216,-0.190547400331634,0.198807743563138,0.0836715801466923,-0.0303659169286172,-0.0850550859096042,-0.0224717958108259,-0.316558325958027,0.175644194870856,-0.539129815566474,0.593666392000081,-0.0999786370433668,-0.0285246335235654,0.0959908851385032,0.00694804732403536
5.64,2,0.754946541744234,0.210496332692445,-0.0579139581489507,-0.0967335022024191,0.34614093447676,0.0338653726818649,-0.0751263974934131,-0.0232042400382499,-0.0211696727398501,-0.25902076275928,-0.397544277270831,-0.232398449659719,0.586820073040966,-0.167892493463953,-0.0781985941139968,-0.011017181920835,0.00274666585283975
5.67,2,0.742952767520168,-0.0411898149561042,-0.102613401694795,0.000549333170567949,0.319172744936471,-0.0207729321166621,-0.231788079470199,0.103386537268186,-0.0225531785027619,-0.188146610919523,-1.58065533412681,-0.121239865311645,0.528529719941811,-0.214209418012024,-0.105604215623442,-0.086987924843084,0.00185145624154383
5.7,2,0.664672790714235,-0.263415428123824,-0.054536576433607,0.0451165298420158,0.0952787865840632,-0.0428988514867601,-0.0809452599668365,-0.10991749829605,-0.0380565813165685,-0.248430839971109,-2.26550085960468,-0.0999684642068748,0.407218644774723,-0.257230343536688,-0.0575070446892707,-0.0500401827041434,0.00167851802117985
5.73,2,0.54277169103061,-0.409477014475946,-0.0236314991709138,0.0355845820490127,-0.0518306019267352,-0.0151676992095706,-0.0538041322061831,-0.191218807540106,-0.0370392976673686,0.00805688650166326,-2.74910733359783,-0.0261136712749616,0.256457207963296,-0.28609068066449,-0.0146387117119867,-0.00133264158045188,0.00167851802117985
5.76,2,0.406516719056775,-0.456862086855678,0.0102847376934111,0.0223904131188899,-0.0338857183548489,0.00265511032441176,0.118238878546505,-0.408673360393078,-0.0148625141148106,-0.0610878831344544,-2.71349223303934,0.205430260119429,0.0852178512934762,-0.321044546850998,0.0128177739799188,0.00251269061352377,0.00167851802117985
5.79,2,0.268918932665995,-0.457441938535722,0.0313018178858811,0.0203253273110141,-0.00159713532924385,-0.00266528316090375,0.10961231320129,-0.394919685455896,-0.00204474013489181,-0.0273649301634775,-2.44282357249672,0.332356741030101,-0.0670796838282418,-0.335907060965809,0.0347402366201768,-0.00582903530991546,0.00167851802117985
5.82,2,0.154230374055198,-0.386883144627216,0.0370494705038606,0.0204474013489181,0.000152592547379986,-0.00468967762281157,0.0833257037059643,-0.306660156051312,-0.00444552954700359,-0.0715252133752454,-1.92309335612049,0.0457167271950438,-0.195328633482874,-0.34949797051912,0.0406099632760603,-0.00717184972685934,0.00167851802117985
5.85,2,0.0683105970437737,-0.291136407564521,0.0370698161768446,0.0205084383678701,0.000152592547379986,-0.00603249203975545,0.101636809391563,-0.248186691895301,-0.00660217088330739,-0.185267698192287,-1.36506241035188,-0.273344116540015,-0.293689789524013,-0.361919003875851,0.0384838404492325,-0.00717184972685934,0.00167851802117985
5.88,2,0.0139164403210547,-0.185613574633015,0.0299996948149052,0.0204067100029501,0.000152592547379986,-0.0064699240089114,0.0930916267382834,-0.186091697948139,-0.0257677948342336,-0.149896745709606,-0.929481897437462,-0.384655293435469,-0.361776584164963,-0.375560777611621,0.0295215714997813,-0.00717184972685934,0.00167851802117985
5.91,2,-0.0138350576291187,-0.0964283171076591,0.0210679443749301,0.0202134261096021,0.000152592547379986,-0.00662251655629139,0.0875576036866359,-0.153904843287454,-0.0352081870988088,-0.118503372295297,-0.575314594968515,-0.292031617175817,-0.405570645263019,-0.391501612394584,0.0189723400575783,-0.00672424492121138,0.00167851802117985
5.94,2,-0.0267036957914975,-0.043387147638376,0.0134077984964548,0.0200303150527462,0.000152592547379986,-0.0065309610278634,0.0795007171849727,-0.155288349050366,-0.0287382630898974,-0.102328562273019,-0.293211666208889,-0.13093457848852,-0.430555131687368,-0.403607287820063,0.011261329996643,-0.0065614795373394,0.00167851802117985
5.97,2,-0.0360627053641367,-0.0304371267840612,0.010335601875871,0.0198370311593982,0.000152592547379986,-0.00661234371979939,0.0697347941526536,-0.164443901893165,-0.0132755516220588,-0.098391674550615,-0.087089653208004,-0.097862687053031,-0.441704560482599,-0.405438398388623,0.0100202439446191,-0.0065614795373394,0.00167851802117985
6,2,-0.043529567349264,-0.0238756472467218,0.00966419466739911,0.0196132287565742,0.000152592547379986,-0.00663268939278339,0.0593585009308145,-0.171564887437564,-0.00839259010589923,-0.107496363210954,0.122501297036653,-0.104291919715974,-0.440198980681783,-0.396445610929695,0.0101219723095391,-0.0065614795373394,0.00167851802117985
6.03,2,-0.0470391959390037,-0.011383404034547,0.00912503433332316,0.0194504633727022,0.000152592547379986,-0.00664286222927539,-0.00114953052359589,-0.166722617267373,-0.0590126244900866,-0.0738954842778812,0.291390728476821,0.0494908495335754,-0.426872564877265,-0.379609566535437,0.00863673818170721,-0.0065614795373394,0.00167851802117985
6.06,2,-0.0483616646829636,-0.00265511032441176,0.00834172592343923,0.0156153040152186,-0.0179550564083783,-0.00224819686473179,-0.159845779798781,-0.207291889197465,-0.129123813592944,-0.065157017731254,0.254310739463485,0.545630258084862,-0.410250150049338,-0.361664682963551,0.00734478794722332,-0.00192266609698782,0.0255948566138696
6.09,2,-0.0497248247728914,-0.00317392498550371,0.00768049155145929,0.00114953052359589,-0.0597348958810185,0.00597145502080345,-0.0844447157200842,-0.150975066377758,-0.0306100650044252,-0.0448622089297159,0.266029847102268,0.0890123193049918,-0.395316426079084,-0.345367798903368,0.00776187424339529,0.0127465641244748,0.138513341675059
6.12,2,-0.0485244300668355,0.0033061718598997,0.00838241726940723,-0.0258084861802016,-0.098269600512711,0.0227159438866339,-0.0680054119490137,-0.13429161453088,-0.0364289274778486,0.0274564856919055,0.223130995615507,-0.259010589922788,-0.38685262611774,-0.338114566484573,0.0149540696432386,0.0453199865718558,0.202836186813969
6.15,2,-0.0465407269508957,0.00847397279783522,0.0264697205521816,-0.0468866033916237,-0.0521968240404472,0.0533870459100111,-0.0475783562730796,-0.168757184565772,0.00698873867000336,0.0310373241370891,0.297758924120813,-0.329874568926054,-0.36624245938495,-0.319488102867723,0.0259610787275816,0.0508947009694713,0.254290393790501
6.18,2,-0.0386059144871364,0.0261645354574216,0.0160425631478825,-0.054465366578163,-0.0257576219977416,0.0353709524826807,-0.0586057110304066,-0.17286701050854,0.0141504155603707,0.0133162429680268,0.353750216172775,-0.156946521398562,-0.345367798903368,-0.306507563503932,0.011210465814183,0.0318002868739891,0.32466607664215
6.21,2,-0.0359711498357087,0.0097557501958271,0.0125939715770948,-0.0661132643615019,-0.0410473952452162,0.0400911486149683,-0.0440382091738639,-0.146661783705151,0.00121056754254789,-0.00126143172500788,0.298074282052065,-0.021301919614246,-0.324330373037914,-0.288155766472365,0.0155542669962666,0.0452386038799198,0.375336975208797
6.24,2,-0.0357270017599007,0.000640888698995941,0.0206203395692821,-0.0783918780073448,-0.0383210750653605,0.0483820103559476,-0.0487584053061515,-0.163670766319773,-0.0053814305042675,0.00902330596840317,0.271950437940611,-0.054394156722719,-0.301950132755516,-0.266050192775251,0.021301919614246,0.0494501581876075,0.443169448937447
6.27,2,-0.0357066560869167,0.000152592547379986,0.021647796054974,-0.087282937101352,-0.0266833501185135,0.0467747021902117,-0.0492467014577675,-0.156549780775374,-0.00293994974618773,0.00994903408917508,0.275765251625111,-0.0861944435967081,-0.284371471297342,-0.248441012807601,0.021515549180578,0.0467848750267037,0.513270465203813
6.3,2,-0.0359101128167567,0.000152592547379986,0.021556240526546,-0.0962146875413272,-0.0301624601987772,0.0493179113132115,-0.0471307514674317,-0.152928250984222,-0.0033061718598997,0.0102135278379671,0.265572069460128,-0.065462202826014,-0.267647328104495,-0.231533758557899,0.022003845332194,0.0503657134718874,0.569119337544888
6.33,2,-0.0369782606484166,-0.00136316008992787,0.0224209316283659,-0.10366120385347,-0.0226549068676819,0.0499282815027314,-0.0460320851262958,-0.154433830785038,-0.00473036896877956,-0.00123091321553189,0.27958006530961,-0.0600502538122705,-0.250729901018301,-0.213538010803552,0.0224107587918739,0.0497044790999074,0.637267169204789
6.36,2,-0.0394807784254484,-0.00663268939278339,0.0269274981943215,-0.11022268339081,-0.021495203507594,0.0508743552964873,-0.0431023082166,-0.156590472121342,-0.00318409782199571,-0.0115359965819269,0.290770185450809,-0.0588498591062146,-0.234453362631102,-0.19474878180283,0.0281177200638854,0.0513626514481033,0.719616280607522
6.39,2,-0.0398368277026683,-0.000274666585283975,0.0252591530096337,-0.113905250200914,-0.00674459059419538,0.0489415163630075,-0.0299183121229692,-0.17144281339966,0.000803654082867926,-0.0137638477736747,0.317097486292103,-0.0274666585283975,-0.216661071606596,-0.17658009582812,0.0247199926755577,0.0469069490646077,0.833775851720735
6.42,2,-0.0402335683258563,0.000152592547379986,0.0248013753674937,-0.113905250200914,0.000783308409883928,0.0411084322641682,-0.0287789544358654,-0.166234321115757,0.00279753003529974,0.0021668141727958,0.30013936785994,-0.00846379996134322,-0.197607348857082,-0.157109286782434,0.0245674001281777,0.0410473952452162,0.934486932991526
6.45,2,-0.0443840856145919,-0.0116275521103549,0.0284941150140894,-0.107140313933734,0.0315052746157211,0.032970163070569,-0.0181992044841863,-0.162287260556861,0.00239061657561978,0.0305286823124892,0.270902635781935,0.00619525742362743,-0.177180293181148,-0.132552059490748,0.0316476943266091,0.0251065604622537,0.98020366018657
6.48,2,-0.0481276894436476,-0.0117699718212429,0.0349742118594928,-0.0936918240913114,0.0458896654154078,0.0189621672210863,-0.0350454217149368,-0.159031952879421,0.000966419466739911,0.054617959125543,0.279437645598722,0.00719219539984334,-0.160974964649393,-0.112643818475906,0.0356456190679647,0.00939970091860714,0.994954273099969
6.51,2,-0.0492772199672435,-0.00249234494053977,0.0336008789330729,-0.0817794325591805,0.0397554450107323,0.0119022186956389,-0.0282906582842494,-0.157119459618926,-0.00371308531957966,0.0621865494755903,0.289936012858465,0.00584938098289946,-0.145675018565427,-0.0961739961953592,0.0320444349497971,0.00849431847081922,0.99740592669454
6.54,2,-0.0495925778984954,0.000101728364919991,0.0303150527461572,-0.0684021525722017,0.0462253690196438,0.00273649301634775,-0.021820734275338,-0.156102175969726,-0.00534073915829951,0.0561642302723268,0.289844457330037,0.00753807184057131,-0.126936653747164,-0.0771202734458449,0.0303659169286172,0.0010783206681519,0.994913581754
6.57,2,-0.0498468988107954,0.000152592547379986,0.0303252255826492,-0.054567094943083,0.0474664550716676,-0.00232957955666779,-0.0189723400575783,-0.157933286538285,-0.00513728242845953,0.0506810714031393,0.294056011637725,0.00471002329579557,-0.109724214402702,-0.0596535131890825,0.0303659169286172,-0.00464898627684357,0.995167902666301
6.6,2,-0.0500503555406354,0.000152592547379986,0.0303048799096652,-0.0383515935748365,0.0558997365235349,-0.00698873867000336,-0.0175481429486984,-0.158950570187485,-0.00371308531957966,0.0490432447279275,0.301085441653696,0.0100100711081271,-0.0912401704967396,-0.0409965310627562,0.0303659169286172,-0.0150456251716666,0.993906470941293
6.63,2,-0.0500503555406354,0.000152592547379986,0.0303557440921252,-0.022247993408002,0.0529903052868231,-0.0138248847926267,-0.0201930804366181,-0.159357483647165,-0.00534073915829951,0.054129662973927,0.300607318338572,0.00835189875993123,-0.076184372488581,-0.0259102145451216,0.0303659169286172,-0.0197251299579862,0.998921679331848
6.66,2,-0.0500503555406354,0.000152592547379986,0.0303353984191412,-0.00707012136193935,0.0420036418754641,-0.0180974761192663,-0.00521866512039552,-0.160903754793949,-0.00289925840021973,0.0672933133945738,0.299040701518805,0.00532039348531551,-0.0549129713838109,-0.00464898627684357,0.0303659169286172,-0.0187790561642303,1.00175990071312
6.69,2,-0.0502029480880154,0.000152592547379986,0.0304066082745852,0.00819930621255125,0.0521764783674632,-0.0225735241757459,-0.00444552954700359,-0.159438866339101,-0.00306202378409172,0.0875779493596199,0.303811761833552,0.00821965188553524,-0.0332956938383129,0.0169479455956704,0.0306100650044252,-0.0299793491419212,1.00295012258268
6.72,2,-0.0501215653960794,0.000152592547379986,0.0308745587532172,0.0234687337870418,0.0482192449720756,-0.032197027497177,-0.00953194779300312,-0.160781680756045,-0.00603249203975545,0.104973499760938,0.305164749086988,0.000172938220363984,-0.0177515996785384,0.032420829900001,0.0305795464949492,-0.0362051250750247,0.998992889187292
6.75,2,-0.0499282815027314,0.000152592547379986,0.0304778181300292,0.0378734702597125,0.0495315408795434,-0.0383109022288685,0.00137333292641987,-0.156671854813278,-0.00672424492121138,0.118218532873521,0.309620451470484,-0.00605283771273944,0.000742617063915932,0.0508438367870113,0.0303659169286172,-0.0427666046123641,0.995442569251584
6.78,2,-0.0498062074648274,0.000152592547379986,0.0303252255826492,0.0521561326944792,0.0462965788750877,-0.0510066021708833,0.00523901079337952,-0.160578224026205,-0.00900296029541917,0.127648752301604,0.332000691752881,-0.0115868607643869,0.0182297229936623,0.0682393871883297,0.0303659169286172,-0.0531123793247271,0.993621631519517
6.81,2,-0.0496434420809554,0.000152592547379986,0.0303455712556332,0.0666829432050539,0.0476393932920316,-0.0628681295205542,-0.00452691223893958,-0.165257728812525,-0.0126651814325388,0.136773786634927,0.364248583432518,-0.00817896053956725,0.0388297168899604,0.0887173070467238,0.0303659169286172,-0.0642719809564501,0.991821039460433
6.84,2,-0.0495315408795434,0.000152592547379986,0.0304167811110772,0.0813216549170405,0.0490228990549435,-0.0766726686401969,0.00645975117241941,-0.161798964405245,-0.0132755516220588,0.125827814569536,0.397564622943815,0.00732444227423933,0.0564287240211188,0.106173894466994,0.0303659169286172,-0.0768456068605609,0.991821039460433
6.87,2,-0.0494094668416395,0.000152592547379986,0.0304269539475692,0.098076316619363,0.0557674896491389,-0.0951974038921272,0.00808740501113926,-0.160171310566525,-0.00717184972685934,0.15749585456913,0.441989399904375,-0.0100914538000631,0.0790124210333567,0.12864569027782,0.0303353984191412,-0.0970692058066551,0.985869930112613
6.9,2,-0.0486871954507075,0.00165817234819585,0.0300810775068412,0.113793348999502,0.0505589973652354,-0.10864589373455,0.00153609831029186,-0.175349182612588,-0.0114037497075309,0.209601123081149,0.515854365672781,0.00152592547379986,0.103528956979074,0.152429781996114,0.0296741640471613,-0.110599078341014,0.976022624388358
6.93,2,-0.0454318877732678,0.010854416536963,0.0246894741660817,0.125522629474776,0.0287382630898974,-0.115868607643869,-0.00627664011556342,-0.205908383434553,-0.0197047842850022,0.25841039256976,0.601753797011221,0.0400911486149683,0.137262082786543,0.182927945799127,0.0227261167231259,-0.117536952828557,0.937243771680858
6.96,2,-0.0358592486342967,0.0292469049144973,0.0174667602567624,0.12762840662862,-0.00285856705425174,-0.111229794203518,-0.0243435977253538,-0.253720714946949,-0.0492873928037355,0.301644947660756,0.794488357188635,0.184596290983815,0.178421379233172,0.214484084597308,0.0161239458398185,-0.112826929532762,0.755821405682546
6.99,2,-0.00749738049460331,0.0810876796777245,0.0315764844711651,0.117913347778761,-0.0495518865525274,-0.110538041322062,0.0340484837387209,-0.221981465091912,-0.0465610726238797,0.208827987507757,0.787876013468836,0.213334554073712,0.228451389100823,0.236152226325266,0.0524511449527472,-0.125013987650176,0.421908220669169
7.02,2,0.0894294056011638,0.310556352427747,0.0674459059419538,0.0721457564012574,-0.19113742484817,-0.121728161463261,-0.0771609647918129,-0.270200710063987,-0.000905382447787917,0.289569790744753,0.975717439293598,0.318653930275379,0.279203670359406,0.189825128940703,0.0753603727327291,-0.135034231594796,0.196111941892758
7.05,2,0.238624225592822,0.506017232785017,0.0411084322641682,-0.00666320790225939,-0.286426384268726,-0.0799686676636047,-0.0877000233975239,-0.32863348287403,0.0422274442782881,0.182663452050335,1.44067710399691,-0.172897529018016,0.352722759687084,0.114210435295673,0.0210882900479141,-0.00169886369416384,0.150090029602954
7.08,2,0.386995045828628,0.515986612547177,0.00179041922259184,-0.0592465997294026,-0.126834925382244,0.033122755617949,0.0453606779178238,-0.230770795820999,0.0204575741854101,0.032288583025605,1.59342224392427,-0.347493921730196,0.444624164555803,0.0577206742556027,-0.0204880926948861,0.0891954303618478,0.087466048158208
7.11,2,0.523311054821416,0.461378826258126,-0.0247810296945097,-0.0480564795882036,0.0789513840144047,0.0484633930478835,-0.116957101148513,-0.0922167627999715,0.010935799228899,-0.169225135044404,1.00211594999034,-0.614042583493555,0.527410707927692,0.00424207281716361,-0.0264086835332296,0.0466628009887997,0.0204168828394421
7.14,2,0.634144108401746,0.373444827621286,-0.0251472518082217,-0.00778221991637928,0.153518275500758,0.0302336700542212,-0.0383821120843125,-0.127048554948576,-0.00509659108249153,-0.190415153457239,0.441155227312031,-0.337595751823481,0.566596474094872,-0.0673238319040498,-0.0275378683838415,0.0142012797428307,0.00551367737866349
7.17,2,0.705984679708243,0.246284371471297,-0.0210069073559781,0.0339874467197689,0.132836898912524,-0.00148523412783186,-0.0933154291411074,-0.0305286823124892,-0.0145369833470667,-0.199601224809514,-0.173518072044028,-0.204535050508133,0.574297311319315,-0.131453393149612,-0.0208441419721061,-0.0043438011820836,0.00244148075807978
7.2,2,0.746248766543575,0.137597786390779,-0.0379955442976165,0.0504979603462834,0.0393993957335124,-0.00165817234819585,-0.0457879370504878,-0.0462355418561358,-0.021332438123722,-0.224494155705435,-0.671987060151982,-0.0459812209438358,0.546850998463902,-0.199143447167374,-0.0595314391511785,-0.00948108361054313,0.00179041922259184
7.23,2,0.728120771914833,-0.0631631417788222,-0.0948515274513993,0.0493179113132115,-0.0101626636555071,-0.0086265653452152,-0.17693614510534,0.0860520238858201,-0.022227647735018,-0.211686554562009,-1.51032034262113,0.0403556423637603,0.484257535528631,-0.243639433983378,-0.0995717235836868,-0.0158696249275185,0.00167851802117985
7.26,2,0.650003560492772,-0.263832514419996,-0.0521154413485112,0.0454115421002838,-0.010437330240791,-0.010569577115187,-0.0627969196651102,-0.0891242205064038,-0.0164087852615945,-0.212022258166245,-2.24441256955677,0.0315968301441491,0.365153965880306,-0.284595273700166,-0.054495885087639,-0.0129195023448388,0.00165817234819585
7.29,2,0.531622262235379,-0.395825067903684,-0.0237739188818018,0.0406404817855363,-0.0166834518468785,-0.0122074037903989,-0.0179143650624104,-0.203222754600665,-0.0151473535365866,-0.0860113325398521,-2.63960692159795,0.00991851557969909,0.217993713187048,-0.313394573809015,-0.0153915016123946,-0.010539058605711,0.00148523412783186
7.32,2,0.392864772484512,-0.462274035869421,0.0127465641244748,0.0362051250750247,-0.0136316008992787,-0.010854416536963,0.097893205562507,-0.374248481704154,-0.0116478977833389,-0.23413800469985,-2.50778730633463,0.298196356089969,0.0607114881842504,-0.331919309060945,0.0156254768517106,-0.00842310861537523,0.00161748100222785
7.35,2,0.259763379823196,-0.443973103020315,0.0310678426465651,0.0351573229163488,-0.000264493748791976,-0.010569577115187,0.113233842992442,-0.362976978871019,-0.00717184972685934,-0.102765994242175,-2.22779015472884,0.13205359050264,-0.0823898027487004,-0.342051454206977,0.0339467553738009,-0.0119022186956389,0.00167851802117985
7.38,2,0.149042227444278,-0.373282062237414,0.0360932238736127,0.0333160395112969,-0.00753807184057131,-0.010813725190995,0.0959400209560432,-0.301329589729504,0.00780256558936328,-0.328063804030478,-1.77483443708609,0.0934985401979634,-0.200638854131698,-0.349569180374564,0.0395112969349244,-0.00964384899441511,0.00167851802117985
7.41,2,0.0689718314157537,-0.273934141056551,0.0342519404685609,0.032909126051617,1.01728364919991e-05,-0.00995920692566708,0.0898770104068117,-0.249285358236437,0.00483209733369956,-0.193151646473586,-1.23031301817886,-0.290037741223385,-0.289813938820561,-0.358694214707887,0.0356557919044567,-0.011291848506119,0.00167851802117985
7.44,2,0.0202948088015381,-0.167312641783909,0.0271411277606535,0.032807397686697,0.000152592547379986,-0.010874762209947,0.0709555345316935,-0.202897223832921,-0.00696839299701936,-0.261340169479456,-0.819442325103509,-0.410046693319498,-0.350484735658844,-0.370677816095462,0.0257067578152816,-0.0114444410534989,0.00167851802117985
7.47,2,-0.00211594999033581,-0.0789819025238807,0.0174260689107944,0.032807397686697,0.000152592547379986,-0.011139255958739,0.0632241787977742,-0.176244392223884,-0.0167343160293385,-0.244453260902738,-0.457747123630482,-0.40888698995941,-0.387351095105848,-0.385092725404625,0.0144759463281147,-0.0114444410534989,0.00167851802117985
7.5,2,-0.00991851557969909,-0.0278023621326334,0.00948108361054313,0.032807397686697,0.000152592547379986,-0.011190120141199,0.054027934609007,-0.164118371125421,-0.0230414746543779,-0.271685944191819,-0.208705913469853,-0.293781345052441,-0.406537064729759,-0.396384573910743,0.0064800968454034,-0.0114444410534989,0.00167851802117985
7.53,2,-0.011322367015595,-0.00415051728873562,0.00406913459679963,0.032807397686697,0.000152592547379986,-0.011383404034547,0.0446689250363679,-0.157322916348766,-0.0285754977060254,-0.302214626504308,-0.0295724356822413,-0.172073529262164,-0.380118208360037,-0.36858221177811,0.00245165359457177,-0.0114444410534989,0.00167851802117985
7.56,2,-0.0138757489750867,-0.0076499730419833,0.00299081392864772,0.032807397686697,0.000152592547379986,-0.0114139225440229,0.0413729260129602,-0.151626127913246,-0.043590604368216,-0.290119123915321,0.0986053041169469,-0.107709992777286,-0.320535905026399,-0.30639566230252,0.00302133243812372,-0.0114444410534989,0.00167851802117985
7.59,2,-0.0141300698873867,-0.000915555284279916,0.00224819686473179,0.032664977975809,0.000152592547379986,-0.0115258237454349,0.0310780154830571,-0.15337585578987,-0.0803755811232846,-0.184728537858211,0.2211066011536,-0.0452386038799198,-0.250312814722129,-0.235928423922442,0.0021464684998118,-0.0114444410534989,0.00167851802117985
7.62,2,-0.0147200944039226,-0.000620543026011943,0.00196335744295582,0.0300912503433332,-0.011037527593819,-0.010834070863979,-0.0916470839564196,-0.188573870052187,-0.181208736431979,0.0360932238736127,0.227505315307067,0.340505183060193,-0.201249224321217,-0.186305327514471,0.00198370311593982,-0.00852483698029522,0.0101117994730471
7.65,2,-0.0173650318918424,-0.00726340525528733,0.0032349620044557,0.0169886369416384,-0.0592364268929105,0.000203456729839981,-0.0997853531500188,-0.186498611407819,-0.0590940071820226,-0.0130720948922188,0.229397462894579,0.0567033906064028,-0.186936043376975,-0.169347209082308,0.00363170262764367,0.0064699240089114,0.107038585568814
7.68,2,-0.0191961424604022,-0.00625629444257942,0.00501520839055554,-0.0121463667714469,-0.10742515335551,0.021922462640258,-0.0775678782514929,-0.142511266416415,-0.0181585131382183,0.136132897935931,0.193060090945158,-0.575202693767103,-0.174555701366212,-0.155084892320526,0.0101016266365551,0.0473342081972716,0.186254463332011
7.71,2,-0.0179652292448703,0.00488296151615955,0.0124413790297149,-0.0356252733949807,-0.0577511927650787,0.0549333170567949,-0.0376496678568885,-0.169489628793196,0.0193589078442742,0.129785047964924,0.26354767499822,-0.566728720969268,-0.164891506698813,-0.146692302214627,0.00959298481195512,0.0513829971210873,0.223944822534867
7.74,2,-0.0178533280434584,0.0010681478316599,0.00905382447787917,-0.0428581601407921,-0.0239265114291818,0.0312000895209611,-0.0428988514867601,-0.176366466261788,0.0284737693411054,0.0968657490768151,0.284096804712058,-0.297229936623229,-0.148370820235806,-0.13027334411654,0.0101931821649831,0.0263273008412936,0.292947172460097
7.77,2,-0.0179754020813623,0.000152592547379986,0.010752688172043,-0.0564897610400708,-0.0490534175644195,0.0377107048758405,-0.0482294178085676,-0.141209143345439,0.0143131809442427,0.0485651214128035,0.289315469832453,0.0147099215674306,-0.146112450534583,-0.127943764559872,0.010834070863979,0.0459608752708518,0.340861232337413
7.8,2,-0.0182602415031383,0.000152592547379986,0.010864589373455,-0.0677409182002218,-0.0314544104332611,0.0450758384960479,-0.0500198370311594,-0.164199753817357,0.00234992522965178,0.0687378561764377,0.316161585334839,-0.0455641346476638,-0.139835810419019,-0.121341593676565,0.011108737449263,0.0425224565365561,0.410555335144098
7.83,2,-0.0185654265978983,0.000152592547379986,0.011281675669627,-0.076418347727897,-0.0292774234239733,0.0413424075034842,-0.0463576158940397,-0.154433830785038,0.00385550503046765,0.0645669932147181,0.319803460798975,-0.0555233415733309,-0.12864569027782,-0.109836115604114,0.011291848506119,0.043539740185756,0.478723512476984
7.86,2,-0.0188909573656423,0.000152592547379986,0.011281675669627,-0.0837427900021363,-0.021556240526546,0.043448184657328,-0.043265073600472,-0.156142867315694,7.12098554439934e-05,0.0440280363373719,0.329121779025646,-0.0498468988107954,-0.125888851588488,-0.106794437493006,0.011352885525071,0.0419120863470361,0.558671834467605
7.89,2,-0.0192876979888302,0.000152592547379986,0.0117191076387829,-0.0893785414187038,-0.0193995991902422,0.0413017161575162,-0.0466424553158157,-0.153497929827774,0.00141402427238787,0.021301919614246,0.340912096519873,-0.0753400270597451,-0.125013987650176,-0.10549231442203,0.0117496261482589,0.0422172714417961,0.6523840042319
7.92,2,-0.0194911547186702,0.000152592547379986,0.0117699718212429,-0.0967640207118951,-0.0226243883582059,0.0470798872849717,-0.0267443871374655,-0.17327392396822,0.00731426943774733,0.0184230068870103,0.357086906542151,-0.0210475987019461,-0.114454583371481,-0.0947396262499873,0.0117496261482589,0.0488906521805475,0.775790683716341
7.95,2,-0.0198573768323822,-6.10370189519944e-05,0.0119225643686229,-0.0966317738374991,0.00739565212968332,0.0387585070345164,-0.0235297708059938,-0.16940824610126,0.00788394828129927,0.0357371745963927,0.347148045289468,0.00258390046896776,-0.0934375031790114,-0.0733359782708213,0.0117496261482589,0.032420829900001,0.918424024170659
7.98,2,-0.0224412773013499,-0.0076499730419833,0.0154627114678386,-0.0887071342102318,0.032797224850205,0.0253201900285857,-0.0173039948728904,-0.162246569210893,0.0097964415417951,0.0717184972685934,0.332244839828689,0.00632750429802342,-0.0748924222540971,-0.0522171697134312,0.0174667602567624,0.0177719453515224,0.988565731782993
8.01,2,-0.0246691284930977,-0.00734478794722332,0.0173752047283344,-0.0726543982258573,0.0554317860449029,0.00197353027944782,-0.0304879909665212,-0.159072644225389,0.00751772616758731,0.101189204585915,0.333404543188777,0.00795515813674327,-0.0595823033336385,-0.0346791996012248,0.0184026612140263,-0.00310271513005971,0.99740592669454
8.04,2,-0.0277108066042055,-0.00880967640207119,0.0202337717825861,-0.0603249203975545,0.0391654204941964,0.00133264158045188,-0.021413820815658,-0.159357483647165,0.00137333292641987,0.105716116824854,0.317697683645131,0.0143131809442427,-0.0469069490646077,-0.0189621672210863,0.0210272530289621,0.00142419710887987,0.984537288532161
8.07,2,-0.0312407808669291,-0.0100202439446191,0.0241604866684978,-0.0451267026785078,0.0552791934975229,-0.00428276416313161,-0.0153101189204586,-0.155695262510046,-0.00228888821069979,0.0938545894751834,0.32578508865627,0.00797550380972727,-0.0294300159713533,0.00195318460646382,0.0242723878699098,-0.0114749595629749,0.97933896908475
8.1,2,-0.0338450270088809,-0.00850449130731122,0.0244453260902738,-0.0285042878505814,0.0550248725852229,-0.0116885891293069,-0.021820734275338,-0.157119459618926,-0.00249234494053977,0.0798872849716687,0.338867356384981,0.00166834518468785,-0.0149235511337626,0.0189621672210863,0.0251167332987457,-0.0186366364533423,0.981139561143834
8.13,2,-0.0337229529709769,-0.000559506007059949,0.022247993408002,-0.0128686381623788,0.0511591947182633,-0.0181992044841863,-0.032563249610889,-0.156183558661662,-0.00293994974618773,0.0708131148208055,0.341970071515041,0.00185145624154383,-0.00953194779300312,0.0242520421969258,0.0211391542303741,-0.0223598946094139,0.986917732271289
8.16,2,-0.0337229529709769,0.000152592547379986,0.0205389568773461,0.00249234494053977,0.0526037375001272,-0.0231330301828059,-0.00778221991637928,-0.159560940377005,-0.00159713532924385,0.0778120263273008,0.346608884955392,0.00178024638609984,-0.00805688650166326,0.0257474491612496,0.0205999938962981,-0.0271614734336375,0.991760002441481
8.19,2,-0.0337229529709769,0.000152592547379986,0.0206610309152501,0.021312092450738,0.0634072898546302,-0.0341400392671489,-0.0065614795373394,-0.158502965381837,-0.00334686320586769,0.087059134698528,0.354614907274595,0.00276701152582375,0.00858587399924721,0.0425326293730481,0.0205999938962981,-0.0417086296171962,0.994781334879605
8.22,2,-0.0336212246060569,0.000152592547379986,0.0206813765882341,0.0387279885250404,0.0562354401277708,-0.0448520360932239,-0.00403861608732363,-0.160496841334269,-0.00261441897844376,0.0943021942808313,0.352336191900388,0.00159713532924385,0.0230821660003459,0.0569170201727348,0.0205999938962981,-0.0480361339152196,0.993936989450769
8.25,2,-0.0334584592221849,0.000152592547379986,0.0204474013489181,0.054068625954975,0.0512812687561673,-0.054750205999939,0.0032858261869157,-0.160374767296365,-0.00253303628650777,0.097364218064923,0.351725821710868,-0.00366222113711966,0.0380362356435845,0.0717083244321014,0.0205999938962981,-0.0554623045543789,0.994252347382021
8.28,2,-0.0332956938383129,0.000152592547379986,0.0203355001475061,0.0709962258776615,0.0556250699382509,-0.0683614612262337,0.00153609831029186,-0.161473433637501,-0.0032654805139317,0.124057741019929,0.356781721447391,-0.0167851802117985,0.054007588936023,0.0875372580136519,0.0202642902920621,-0.0700704977568896,0.992411063976969
8.31,2,-0.0332346568193609,0.000152592547379986,0.0199997965432702,0.0858282214829961,0.0482497634815516,-0.0808740501113926,0.00511693675547553,-0.161636199021373,-0.00566626992604348,0.135858231350647,0.376517024241869,-0.0171615751620024,0.0696839299701936,0.103122043519395,0.0201422162541581,-0.0810876796777245,0.988931953896705
8.34,2,-0.0331125827814569,0.000152592547379986,0.0200099693797622,0.101779229102451,0.0531937620166631,-0.0971200699891151,0.00312306080304371,-0.163426618243965,-0.00839259010589923,0.132246874395988,0.422661010569577,-0.0151880448825546,0.0858180486465041,0.119174779503769,0.0201422162541581,-0.100151575263731,0.989735607979573
8.37,2,-0.033082064271981,0.000152592547379986,0.0200608335622222,0.117425051627145,0.0509048738059633,-0.115166681925921,0.0116682434563229,-0.163670766319773,-0.0127465641244748,0.15037486902473,0.484338918220567,0.0121870581174149,0.107943968016602,0.141209143345439,0.0201422162541581,-0.116255175430565,0.985768201747693
8.4,2,-0.032929471724601,0.000152592547379986,0.0200303150527462,0.132633442182684,0.0477411216569516,-0.13225704723248,0.00918607135227515,-0.17429120761742,-0.0065207881913714,0.172419405702892,0.54190699992879,0.00952177495651112,0.133111565497808,0.166254666788741,0.0201422162541581,-0.133996602272612,0.973601489303263
8.43,2,-0.0309661142816452,0.00644957833592741,0.0195521917376222,0.145034129866431,0.032532731101413,-0.140334279407127,0.000925728120771915,-0.198543249814346,-0.010956144901883,0.21952981149734,0.621550136824651,-0.00556454156112349,0.167851802117985,0.199031545965962,0.0185349080884223,-0.141402427238787,0.948423718985565
8.46,2,-0.0258796960356456,0.0130212307097588,0.0196640929390342,0.151585436567278,0.0148421684418266,-0.141422772911771,-0.0208034506261381,-0.245948667867061,-0.0266223130995615,0.233161412396619,0.834589678640095,0.0619830927457503,0.211299986775313,0.237403485213782,0.0234585609505498,-0.146397289956359,0.843551947589546
8.49,2,0.00403861608732363,0.0851262957650482,0.0232449313842179,0.143386130354727,-0.0459507024343598,-0.143101290932951,0.0126041444135868,-0.251075777459029,-0.0347198909471928,0.269803969440799,0.845901872819198,0.12895087537258,0.26314076153854,0.259234392325612,0.0373343099256366,-0.154922126936654,0.581133457441938
8.52,2,0.0910570594398836,0.274524165573087,0.0514847254860073,0.101148513239947,-0.181015452538631,-0.147048351491846,-0.0694296090578936,-0.322082176173182,0.00247199926755577,0.257861059399192,1.03568631041393,0.0732139042329173,0.318338572344127,0.227373068432671,0.0615558336130863,-0.159123508407849,0.344319996744692
8.55,2,0.231421857356487,0.470564897610401,0.0442314930672119,0.0230719931638539,-0.291879024628437,-0.12900173955504,-0.0621458581296223,-0.310810673340047,0.0242011780144658,0.0895921709850358,1.22443311868648,-0.0533260088910591,0.386811934771772,0.15546128727073,0.0440483820103559,-0.133304849391156,0.276782535274311
8.58,2,0.391623686432488,0.554907884965565,0.0184433525599943,-0.0782596311329488,-0.361033967101047,-0.0717693614510534,-0.0125431073946348,-0.301451663767408,-0.00367239397361166,0.235236671040986,1.55735953856014,-0.202836186813969,0.471378724529761,0.0798465936257007,0.010610268461155,-0.0588091677602466,0.186722413810643
8.61,2,0.543931394390698,0.528021078117211,-0.0163782667521185,-0.183161921038443,-0.356507054862107,-0.0209255246640421,-0.0487990966521195,-0.202775149795017,-0.00668355357524339,-0.223670155949583,1.36229539882605,-0.492578915779087,0.561530401521856,0.0176905626595864,-0.022258166244494,0.104210537024038,0.0561642302723268
8.64,2,0.66907762891527,0.425570441806289,-0.032410657063509,-0.256355479598376,-0.178431552069664,0.123050630207221,-0.0918098493402915,-0.0205999938962981,-0.00635802280749942,-0.142867315693635,0.597135329243853,-0.305795464949492,0.620461643320007,-0.0483718375194555,-0.0354421623381247,0.19047619047619,0.0128686381623788
8.67,2,0.760409354940438,0.310078229112624,-0.0299183121229692,-0.213029368978952,0.235195979695018,0.0894294056011638,-0.0208034506261381,-0.0769575080619729,0.000152592547379986,-0.32965076652323,0.0863673818170721,-0.3927528712831,0.638396354055401,-0.121768852809229,-0.0319121880754011,0.100904365164139,0.00394706055889564
8.7,2,0.812596006144393,0.179377625863419,-0.0605080314544104,-0.10650959807123,0.389924822738324,0.032451348409477,-0.0832646666870123,0.00991851557969909,-0.00411999877925962,-0.302560502945036,-0.5651621041495,-0.122501297036653,0.623879716381319,-0.188492487360251,-0.0806197291990926,-0.0161442915128025,0.00211594999033581
8.73,2,0.792148604795475,-0.0706706951099175,-0.10493280841497,0.000518814661091952,0.348857081820124,-0.0291756950590533,-0.249448123620309,0.126539913123976,-0.0149032054607786,-0.301583910641804,-1.64629047517319,-0.106672363455102,0.558519241920225,-0.233364869126459,-0.10818811609241,-0.0951363668731753,0.00171920936714784
8.76,2,0.703634754478591,-0.300047812331512,-0.0552486749880469,0.0482192449720756,0.102247179581083,-0.0451063570055239,-0.104912462741986,-0.0941699474064353,-0.0197047842850022,-0.324218471836502,-2.40061647389142,-0.105502487258522,0.431196020386364,-0.272174240343435,-0.0572120324310027,-0.0533056632180751,0.00167851802117985
8.79,2,0.576453952655619,-0.431338440097252,-0.0233975239315978,0.0396638894823044,-0.0517288735618152,-0.0184636982329783,-0.0474969735811436,-0.197159744051434,-0.0230821660003459,-0.0965910824915311,-2.88338877529221,-0.28553117465743,0.271797845393231,-0.304371267840612,-0.0158492792545345,-0.00337738171534369,0.00167851802117985
8.82,2,0.43300678528194,-0.480137536749372,0.0100304167811111,0.0261543626209296,-0.032685323648793,0.00238044373912778,0.118889940081993,-0.405295978677735,-0.02157658619953,-0.21841079948322,-2.8657287311421,-0.361033967101047,0.0926338490961435,-0.340128788109989,0.0128381196529028,0.00120039470605589,0.00167851802117985
8.85,2,0.28792179123305,-0.482833338419752,0.032593768120365,0.0246386099836217,-0.000427259132663961,-0.00343841873429568,0.0658284249397259,-0.393861710460728,-0.0121768852809229,-0.259620960112308,-2.56696269620858,-0.186335846023947,-0.0677714367096978,-0.355622018087303,0.0356964832504247,-0.00813826919359925,0.00167851802117985
8.88,2,0.165176346120589,-0.415082247383038,0.0401318399609363,0.0244554989267658,0.000152592547379986,-0.00575782545447147,0.109286782433546,-0.332906074200669,-0.0122175766268909,-0.305266477451908,-1.99034597816909,-0.279569892473118,-0.202144433932513,-0.367239397361166,0.04371267840612,-0.00854518265327921,0.00167851802117985
8.91,2,0.0733563239438053,-0.311838129825739,0.0389619637643564,0.0241808323414818,0.000152592547379986,-0.00727357809177933,0.109978535315002,-0.26425977355266,-0.0130720948922188,-0.30329294717246,-1.38801232947783,-0.206274605548265,-0.303526922411776,-0.376791690827153,0.0411592964466282,-0.00811792352061525,0.00167851802117985
8.94,2,0.0153813287759026,-0.19861445966979,0.032278410189113,0.022014018168686,-0.0075991088595233,-0.00691752881455936,0.0880865911842199,-0.201879940183721,-0.0250353506068097,-0.27993611458683,-0.910041606901252,-0.47799106824956,-0.371562852870266,-0.386893317463708,0.0316680399995931,-0.0054526403597115,0.00167851802117985
8.97,2,-0.0133772799869788,-0.0993784396903389,0.021871598457798,0.021413820815658,7.12098554439934e-05,-0.00603249203975545,0.0769778537349569,-0.158014669230221,-0.0413118889940082,-0.210781172114221,-0.506546220282601,-0.431409649952696,-0.412172816146326,-0.398592079429507,0.0194911547186702,-0.00717184972685934,0.00167851802117985
9,2,-0.0241197953225298,-0.0374055197810806,0.0134586626789148,0.021251055431786,0.000152592547379986,-0.00632750429802342,0.0712403739534695,-0.147556993316446,-0.0423291726432081,-0.178807947019868,-0.203059989216793,-0.3012075156916,-0.432386242255928,-0.408062990203558,0.0102135278379671,-0.00717184972685934,0.00167851802117985
9.03,2,-0.0291146580401013,-0.0160527359843745,0.00810775068412325,0.0210577715384381,0.000152592547379986,-0.00675476343068738,0.0615151422671183,-0.146702475051118,-0.0388297168899604,-0.147312845240638,-0.0276497695852535,-0.223334452345347,-0.43880530208238,-0.409456668802962,0.00667338073875139,-0.00717184972685934,0.00167851802117985
9.06,2,-0.0352590512812688,-0.0193792535172582,0.00736513362020732,0.0209051789910581,0.000152592547379986,-0.00703960285246335,0.0639973143711661,-0.154271065401166,-0.0444858139795119,-0.104749697358114,0.134637490971608,-0.183802809737439,-0.435316019165624,-0.399833165481531,0.00795515813674327,-0.00717184972685934,0.00167851802117985
9.09,2,-0.0421867529323201,-0.021800388602354,0.00836207159642323,0.0198573768323822,-0.00616473891415143,-0.00640888698995941,-0.0185247352519303,-0.174982960498876,-0.127292703024384,0.00827051606799524,0.252093061108229,0.154657633187862,-0.422488072349213,-0.380077517014069,0.00917589851578316,-0.00562557858007548,0.00184128340505183
9.12,2,-0.0518000834172592,-0.0311899166844691,0.010661132643615,0.0124312061932229,-0.0346690267647328,0.000681580044963937,-0.134983367412336,-0.242164372692038,-0.103691722362946,-0.100904365164139,0.25535854162216,0.567186498611408,-0.407839187800734,-0.355866166163111,0.0120751569160029,0.00239061657561978,0.0710776085695975
9.15,2,-0.0590431429995626,-0.0234789066235338,0.0125227617216508,-0.0142419710887987,-0.104963326924446,0.0144352549821467,-0.0940071820225633,-0.143935463525295,-0.0238146102277698,0.11347799106825,0.239305805637786,-0.304798526973276,-0.392457859024832,-0.333170567949461,0.0124108605202389,0.0300607318338572,0.207118950977101
9.18,2,-0.0621458581296223,-0.0101219723095391,0.0161849828587705,-0.0492873928037355,-0.115024262215033,0.0461032949817398,-0.0638955860062461,-0.132175664540544,-0.00916572567929116,0.0820439263079725,0.288918729209265,-0.401420127974283,-0.376181320637633,-0.313821832941679,0.0255846837773776,0.0605995869828384,0.260719626453444
9.21,2,-0.0571306497390667,0.0179347107353944,0.0339976195562609,-0.06528926460565,-0.032837916196173,0.0528478855759351,-0.0449334187851599,-0.196549373861914,0.0317697683645131,0.0896328623310037,0.405814793338827,-0.256050294503616,-0.348033082064272,-0.290709148431857,0.0278227078056174,0.0462965788750877,0.318542029073967
9.24,2,-0.0552181564785709,0.00751772616758731,0.0257474491612496,-0.0741599780266732,-0.0346181625822728,0.0399589017405723,-0.0494094668416395,-0.149021881771294,0.00739565212968332,0.0670288196457818,0.382641071810053,-0.0124515518662069,-0.322234768720562,-0.266772464166183,0.0285246335235654,0.0427564317758721,0.385041861222165
9.27,2,-0.0554012675354269,0.000478123315123956,0.033163446963917,-0.0876389863785719,-0.0445366781619719,0.054333119703767,-0.0623086235134943,-0.152033041372926,0.000559506007059949,0.0611387473169144,0.363750114444411,-0.0803450626138086,-0.303577786594236,-0.247932370983001,0.0334788048951689,0.0558793908505509,0.479150771609648
9.3,2,-0.0555233415733309,0.000152592547379986,0.0338958911913409,-0.102135278379671,-0.0499181086662394,0.0618508458713543,-0.0523392437513352,-0.155898719239886,0.00239061657561978,0.0382396923734245,0.360962757245603,-0.0927559231340475,-0.283232113610238,-0.227495142470575,0.0337229529709769,0.0627765739921262,0.599454735964029
9.33,2,-0.0556861069572029,0.000152592547379986,0.0337432986439609,-0.116804508601133,-0.0465610726238797,0.0677205725272378,-0.0456251716666158,-0.161798964405245,0.000966419466739911,0.0192571794793542,0.353373821222571,-0.0836817529831843,-0.262184514908292,-0.206274605548265,0.0337229529709769,0.0681173131504257,0.730999684642069
9.36,2,-0.0558386995045829,0.000152592547379986,0.0342315947955768,-0.130242825607064,-0.043427838984344,0.0689209672332936,-0.0319935707673371,-0.178726564327932,0.0100812809635711,0.0243232520523698,0.350983204646952,-0.0384126305937885,-0.241035187841426,-0.185013377279987,0.0343333231604968,0.0706096580909655,0.862483596301157
9.39,2,-0.0559099093600269,0.000152592547379986,0.0340586565752129,-0.134627318135116,-0.00165817234819585,0.054770551672923,-0.0231635486922819,-0.17286701050854,0.0075584175135553,0.0515559353414513,0.32965076652323,0.00781273842585528,-0.220628477838476,-0.164494766075625,0.0343333231604968,0.0531835891801711,0.970508947009695
9.42,2,-0.0578325754570147,-0.00565609708955148,0.0357575202693767,-0.128157394126204,0.0248624123864457,0.0388602353994364,-0.0315052746157211,-0.159927162490717,0.00898261462243517,0.0823694570757164,0.302458774580116,0.0102745648569191,-0.200303150527462,-0.142256945504115,0.0374767296365246,0.0350454217149368,1.00519831944741
9.45,2,-0.0619729199092583,-0.010610268461155,0.043346456292408,-0.117801446577349,0.0385957416506445,0.0298674479405093,-0.0378124332407605,-0.156793928851182,0.00226854253771579,0.101758883429467,0.321146275215918,0.010508540096235,-0.182063254697307,-0.119846186712241,0.043438011820836,0.0228583635975219,1.01037629322184
9.48,2,-0.0622882778405103,-0.00086469110181992,0.0392468031861324,-0.102776167078667,0.0533260088910591,0.0187485376547543,-0.0263374736777856,-0.15378276924955,-0.0032247891679637,0.0967640207118951,0.328572445855078,0.0119123915321309,-0.159866125471765,-0.097384563737907,0.0387483341980244,0.00998972543514308,1.00515762810144
9.51,2,-0.0624612160608743,0.000152592547379986,0.0382498652099165,-0.087191381572924,0.0501419110690634,0.00877915789259519,-0.032156336151209,-0.15500350962859,-0.00241096224860378,0.0843328145186722,0.329569383831294,0.00943021942808313,-0.144871364482559,-0.0821965188553524,0.0381481368449965,0.00383515935748365,1.00017293822036
9.54,2,-0.0625731172622862,0.000152592547379986,0.0381990010274565,-0.0730206203395693,0.0496841334269234,0.00209560431735181,-0.0211696727398501,-0.156875311543118,-0.00342824589780368,0.0750348419649851,0.330067852819402,0.00806705933815526,-0.127190974659464,-0.0643533636483861,0.0381481368449965,0.00122074037903989,1.00106814783166
9.57,2,-0.0627358826461582,0.000152592547379986,0.0381888281909645,-0.0553198848434909,0.0624917345703503,-0.00444552954700359,-0.0167343160293385,-0.158543656727805,-0.00310271513005971,0.0679545477665537,0.34385204626606,0.00675476343068738,-0.104546240628274,-0.0415763827428002,0.0381481368449965,-0.0118615273496709,1.00077313557339
9.6,2,-0.0628172653380942,0.000152592547379986,0.0382702108829005,-0.0358490757978047,0.065004425183874,-0.0129601936908068,-0.0207220679342021,-0.160293384604429,-0.00143436994537187,0.0716472874131494,0.347880489516892,0.00775170140690329,-0.0846888637958922,-0.02167831456445,0.0381481368449965,-0.021210364085818,1.00233975239316
9.63,2,-0.0628681295205542,0.000152592547379986,0.0381277911720125,-0.0192876979888302,0.0525427004811752,-0.0191249326049582,-0.0190537227495142,-0.159886471144749,-0.00135298725343588,0.0893480229092278,0.345856095054984,0.0098269600512711,-0.0675578071433658,-0.00456760358490758,0.0381481368449965,-0.0211696727398501,1.01034577471236
9.66,2,-0.0627053641366822,0.000152592547379986,0.0382905565558845,-0.0032654805139317,0.0514236884670553,-0.021485030671102,-0.0157170323801386,-0.161351359599597,-0.0032654805139317,0.106957202876878,0.345906959237444,0.010895107882931,-0.0534684286019471,0.00931831822667114,0.0381481368449965,-0.0242113508509578,1.01130202134261
9.69,2,-0.0626239814447462,0.000152592547379986,0.0383007293923765,0.0152287362285226,0.0593890194402905,-0.0297962380850653,-0.00595110934781945,-0.159560940377005,-0.0043234555090996,0.119266335032197,0.362397127190975,0.00808740501113926,-0.0310068056276131,0.0316985585090691,0.0381481368449965,-0.0367137668996246,1.009531947793
9.72,2,-0.0625629444257942,0.000152592547379986,0.0381176183355205,0.032359792881049,0.0565914894049908,-0.0398571733756523,-0.00505589973652353,-0.160944446139917,-0.00725323241879533,0.128584653258868,0.381888281909645,-0.00463881344035157,-0.011261329996643,0.0513626514481033,0.0381481368449965,-0.0443535671051159,1.004445529547
9.75,2,-0.0624510432243823,0.000152592547379986,0.0381481368449965,0.0498774173202714,0.0584938098289946,-0.0536617124952951,-0.00350962858973968,-0.161921038443149,-0.011240984323659,0.124017049673961,0.419588813948993,0.00128177739799188,0.0087588122196112,0.0714234850103254,0.0381481368449965,-0.0554724773908709,1.00075278990041
9.78,2,-0.0621865494755903,0.000366222113711966,0.0383109022288685,0.0679647206030457,0.0601418093406985,-0.0689921770887376,0.000478123315123956,-0.162043112481053,-0.0141707612333547,0.110660115359966,0.487695954262927,0.0269783623767815,0.032461521245969,0.0948413546149073,0.0381481368449965,-0.0693990905484176,0.994933927426984
9.81,2,-0.0598264514094465,0.00798567664621926,0.0337127801344849,0.0891649118523718,0.0734478794722332,-0.0928373058259835,0.00426241849014761,-0.160089927874589,-0.00253303628650777,0.122979420351777,0.559556871242408,0.00686666463209937,0.0613218583737704,0.121361939349549,0.032746360667745,-0.0949023916338593,0.990376496678569
9.84,2,-0.0557980081586149,0.0144759463281147,0.0312916450493891,0.111219621367026,0.0707012136193935,-0.11312194179103,-0.00021362956633198,-0.178482416252124,-0.0101016266365551,0.205298013245033,0.661600594093651,0.0185145624154383,0.097404909410891,0.153416547135838,0.0289518926562293,-0.115654978077537,0.978331858272042
9.87,2,-0.0423088269702241,0.043855098117008,0.0144454278186387,0.129591764071576,0.0555436872463149,-0.129388307341736,-0.0172226121809544,-0.210384431491033,-0.0125837987406028,0.244799137343465,0.851171402122054,0.0455336161381878,0.142663858963795,0.185176142663859,0.00689718314157537,-0.132755516220588,0.951089002146469
9.9,2,-0.0255745109408856,0.0451877396974598,-0.00240078941211178,0.140354625080111,0.0233364869126459,-0.129378134505244,0.0146794030579546,-0.235572374645222,-0.0265002390616576,0.237922299874874,0.923622343618071,0.0570696127201148,0.199001027456486,0.224819686473179,0.000742617063915932,-0.133844009725232,0.809259315775018
9.93,2,0.021668141727958,0.140619118828903,0.00530004781233151,0.13195186213772,-0.0506810714031393,-0.126499221778008,-0.00460829493087558,-0.250913012075157,-0.0776899522893968,0.328562273018586,0.851568142745242,0.378012431206193,0.249285358236437,0.227739290546383,0.0305795464949492,-0.140263069551683,0.492202520828883
9.96,2,0.114444410534989,0.296263517156489,0.04325490076398,0.0901923683380637,-0.174199652088992,-0.137872452976063,-0.0390738649657684,-0.296528010905281,0.0292469049144973,0.307077242347484,1.04422132023072,0.171412294890184,0.30685343994466,0.19251075777459,0.0584429456465346,-0.154433830785038,0.296670430616169
9.99,2,0.257281207719148,0.481419314147364,0.0415967284157842,0.00992868841619108,-0.302306182032736,-0.119927569404177,-0.0468459120456557,-0.318135115614287,0.0480463067517116,0.177027700633768,1.23762728761661,-0.155217139194922,0.374645222327342,0.117404705954161,0.0396842351552883,-0.120497248247729,0.247728914253161
10.02,2,0.414858444980214,0.54704428235725,0.0134586626789148,-0.087445702485224,-0.340678121280557,-0.0687683746859137,-0.0364289274778486,-0.26283557644378,0.00926745404421115,0.158014669230221,1.54188665425581,-0.396476129439171,0.460697246213162,0.0459507024343598,0.00575782545447147,-0.0549943540757469,0.173538417717012
10.05,2,0.55961790826136,0.501775159967854,-0.0159306619464705,-0.185003204443495,-0.332977284056113,-0.0211086357208981,-0.075777459028901,-0.160659606718141,-0.00725323241879533,-0.0924710837122715,1.26679280983917,-0.652912991729484,0.54699341817479,-0.0124413790297149,-0.022003845332194,0.100619525742363,0.0534379100924711
10.08,2,0.679504786319569,0.407218644774723,-0.0313018178858811,-0.254422640664897,-0.16950997446618,0.114698731447289,-0.0730511388490453,-0.0378531245867285,-0.00847397279783522,-0.173568936226488,0.489293089592171,-0.414156519262266,0.598020366018657,-0.0812097537156285,-0.0344757428713848,0.187892290007223,0.0123193049918109
10.11,2,0.761975971760206,0.281828262174342,-0.0282804854477574,-0.211208431246885,0.231472721538947,0.0886054058453118,-0.0155949583422346,-0.0699179052095096,-0.011159601631723,-0.209367147841833,0.0512100589007233,-0.257321899065116,0.613594978687907,-0.14813684499649,-0.0292672505874813,0.100578834396395,0.00383515935748365
10.14,2,0.806095563626006,0.15235857214067,-0.0561744031088188,-0.105319376201666,0.386995045828628,0.0315459659616891,-0.102430290637939,0.00629698578854742,-0.0250353506068097,-0.161402223782057,-0.60628070925016,-0.0121667124444309,0.595772169153925,-0.210079246396273,-0.076245409507533,-0.0160527359843745,0.00207525864436781
10.17,2,0.77955463321838,-0.0911282692953276,-0.100232957955667,0.00206508580787581,0.352315846227404,-0.0254626097394737,-0.24273405153559,0.127109591967528,-0.0224717958108259,-0.107648955758334,-1.6375113172806,0.199143447167374,0.530075991088595,-0.249265012563453,-0.103335673085726,-0.0961943418683432,0.00171920936714784
10.2,2,0.687927894934945,-0.310057883439639,-0.0502843307799514,0.0507115899126153,0.104454685099846,-0.0458286283964558,-0.107028412732322,-0.110243029063794,-0.0227566352326019,0.00451673940244758,-2.40326141137933,0.211544134851121,0.402569658497879,-0.285103915524766,-0.0528987497583951,-0.0551672922961109,0.00167851802117985
10.23,2,0.558244575334941,-0.436455376852728,-0.021719005910418,0.04325490076398,-0.0466628009887997,-0.0207932777896461,-0.0511591947182633,-0.208390555538601,-0.0138859218115787,-0.142246772667623,-2.83194474115218,0.186468092898343,0.244738100324513,-0.313272499771111,-0.0124515518662069,-0.00582903530991546,0.00167851802117985
10.26,2,0.413810642821538,-0.482589190343944,0.0145675018565427,0.0302743614001892,-0.0331125827814569,0.00187180191452783,0.115105644906969,-0.402081362346263,-0.00839259010589923,0.0186061179438663,-2.70479445783868,0.32914212469863,0.0742210150456252,-0.339396343882565,0.0161239458398185,0,0.00167851802117985
10.29,2,0.275388856674907,-0.460910875779494,0.0314238919237851,0.0287179174169134,-0.000630715862503942,-0.00375377666554765,0.0797041739148127,-0.378480381684825,0.0121565396079389,-0.033000681580045,-2.45711640776798,0.34629352702414,-0.0800805688650166,-0.355367697175003,0.0346486810917488,-0.00948108361054313,0.00167851802117985
10.32,2,0.161249631234677,-0.385448774681845,0.0363271991129287,0.0286060162155014,0.000152592547379986,-0.00677510910367138,0.0797041739148127,-0.333923357849869,0.0282296212652974,-0.20029297769097,-1.98509679453922,-0.0186264636168503,-0.211371196630757,-0.372539445173498,0.0395825067903684,-0.0100711081270791,0.00167851802117985
10.35,2,0.0768252611875769,-0.286690878017518,0.0352488784447768,0.0285348063600574,0.000152592547379986,-0.00850449130731122,0.10371206803593,-0.257464318776004,0.00881984923856319,-0.340932442192857,-1.43488876003296,-0.380535294656209,-0.313709931740267,-0.390453810235908,0.0364492731508326,-0.0100711081270791,0.00167851802117985
10.38,2,0.021871598457798,-0.187627796258431,0.0293994974618773,0.0283516953032014,0.000152592547379986,-0.00925728120771915,0.0783206681519008,-0.197159744051434,-0.0187281919817703,-0.2228868475397,-0.978026673177282,-0.732983387758009,-0.385163935260069,-0.406954151025931,0.0286467075614694,-0.00985747856074709,0.00167851802117985
10.41,2,-0.00665303506576739,-0.0989410077211829,0.0202846359650461,0.0281177200638854,0.000152592547379986,-0.00960315764844712,0.0728680277921893,-0.165217037466557,-0.0332956938383129,-0.178685872981964,-0.584358246609902,-0.734804325490076,-0.430382193467004,-0.423525701671397,0.0183212785220903,-0.00961333048493912,0.00167851802117985
10.44,2,-0.0173548590553504,-0.0376801863663645,0.0119937742240669,0.0278837448245694,0.000152592547379986,-0.00944039226457513,0.0797041739148127,-0.156671854813278,-0.0346791996012248,-0.182215847244687,-0.283964557837662,-0.491388693909523,-0.45585497604297,-0.438266141748304,0.00946073793755913,-0.00961333048493912,0.00167851802117985
10.47,2,-0.021342610960214,-0.0126550085960468,0.00732444227423933,0.0277108066042055,0.000152592547379986,-0.00960315764844712,0.0738853114413892,-0.151259905799534,-0.0362254707480087,-0.207800531022065,-0.0476495661285236,-0.192876979888302,-0.463199763990193,-0.441623177790663,0.00526952930285552,-0.00961333048493912,0.00167851802117985
10.5,2,-0.0250353506068097,-0.011200292977691,0.00512710959196753,0.0275785597298095,0.000152592547379986,-0.00957263913897112,0.0645263018687501,-0.145481734672079,-0.0383414207383445,-0.207729321166621,0.124271370586261,-0.0182297229936623,-0.422040467543565,-0.396791487370423,0.00492365286212755,-0.00961333048493912,0.00167851802117985
10.53,2,-0.0316476943266091,-0.0210272530289621,0.00584938098289946,0.0269783623767815,-0.00331634469639169,-0.00963367615792311,0.0346588539282408,-0.151666819259214,-0.0855433820612201,-0.121422976368501,0.236640522476882,0.116662088890245,-0.408968372651346,-0.377076530248929,0.00744651631214331,-0.00937935524562314,0.00167851802117985
10.56,2,-0.0412305063020722,-0.0313425092318491,0.00889105909400718,0.022207302062034,-0.0226040426852219,-0.00662251655629139,-0.141778822188991,-0.227230648721783,-0.17144281339966,-0.0487584053061515,0.223161514124983,0.626880703146458,-0.395021413820816,-0.353567105115919,0.010335601875871,-0.00332651753288369,0.043183690908536
10.59,2,-0.0487787509791355,-0.0238959929197058,0.011068046103295,-0.00409965310627562,-0.111962238430942,0.0117903174942269,-0.114515620390433,-0.167861974954477,-0.0334584592221849,0.0230007833084099,0.237932472711366,-0.149540696432386,-0.380830306914477,-0.331848099205501,0.011261329996643,0.0267545599739575,0.229906104719179
10.62,2,-0.0498163803013194,-0.00378429517502365,0.0133976256599628,-0.0480971709341716,-0.148096153650522,0.0621560309661143,-0.0603961302529984,-0.136488947213151,-0.0304472996205532,0.0313018178858811,0.265195674509924,-0.504938912116865,-0.369945371868038,-0.319905189163895,0.021200191249326,0.0788293099765007,0.316365042064679
