time,Mode,Knee_Angle,Knee_Velocity,Knee_Current,Ankle_Angle,Ankle_Velocity,Ankle_Current,Acc_X,Acc_Y,Acc_Z,Gyro_X,Gyro_Z,Gyro_Y,Shank_Angle,Thigh_Angle,Knee_Ref_Torque,Ankle_Ref_Torque,Filtered_Vertical_Load
0,2,-0.0375174209824925,0.010549231442203,0.0168156987212745,-0.176407157607756,0.0225633513392539,0.0524816634622232,-0.0459507024343598,-0.15581733654795,-0.00440483820103559,0.0565202795495468,-0.0679545477665537,-0.191757967874182,-0.257077750989308,-0.219316181931008,0.0175074516027304,0.0524816634622232,0.638182724489069
0.03,2,-0.0364696188238166,0.00266528316090375,0.0185552537614063,-0.16854355499944,0.0273751029999695,0.0490839360738955,-0.0484735658843755,-0.150405387534206,-0.000661234371979939,0.0591245256914986,-0.0751467431663971,-0.259946490880052,-0.262906786299224,-0.226243883582059,0.0203253273110141,0.0473342081972716,0.513178909675385
0.06,2,-0.0365103101697846,0.000203456729839981,0.02193263547675,-0.160059409365113,0.0251472518082217,0.0440280363373719,-0.0692261523280536,-0.145318969288207,-0.00473036896877956,0.0357880387788527,-0.0504165776543474,-0.305754773603524,-0.274371573025707,-0.237606941943622,0.022125919370098,0.04396699931842,0.41280353200883
0.09,2,-0.0365713471887366,0.000152592547379986,0.022095400860622,-0.153965880306406,0.0190537227495142,0.0456048259936318,-0.0702434359772535,-0.149795017344686,-0.0132755516220588,0.0579139581489507,-0.04391613513596,-0.550350454217149,-0.294127221493169,-0.257362590411084,0.0224616229743339,0.0456455173395998,0.336100344859157
0.12,2,-0.0350555945514288,0.00476088747825556,0.021566413363038,-0.146163314717043,0.0268155969929095,0.0418510493280842,-0.0726442253893653,-0.15541042308827,-0.00916572567929116,0.133050528478856,-0.0422986541337321,-0.893307290871914,-0.299356059450056,-0.264046143986328,0.0199489323608102,0.0397045808282723,0.265388958403272
0.15,1,-0.033051545762505,0.00488296151615955,0.0168360443942585,-0.13495284890286,0.0390738649657684,0.0341603849401329,-0.0704468927070935,-0.15418968270923,-0.0163680939156265,0.208003987751905,-0.0449537644581439,-1.24864446953744,-0.30263171280048,-0.269356364635151,0.0177414268420464,0.0286568803979614,0.184596290983815
0.18,1,-0.0304778181300292,0.00778221991637928,0.0158594520910265,-0.120934680216885,0.0469272947375917,0.0253100171920937,-0.0662556840723899,-0.156468398083438,-0.0181585131382183,0.321278522090314,-0.0415356913968322,-1.55152033041373,-0.307280699077324,-0.276518041525519,0.0144149093091627,0.0181686859747103,0.098005106763919
0.21,1,-0.0282804854477574,0.00748720765811131,0.0153101189204586,-0.104912462741986,0.0511998860642313,0.00624612160608743,-0.076631977294229,-0.155166275012462,-0.0148218227688426,0.315683462019715,-0.0401521856339203,-1.7759636219367,-0.30965096997996,-0.28115685496587,0.0140486871954507,0.0022075055187638,0.0312306080304371
0.24,1,-0.0272530289620655,0.00211594999033581,0.0137943662831507,-0.097465946429843,0.0139571316670227,0.0097964415417951,-0.0522171697134312,-0.157363607694734,-0.0166936246833705,0.331349630217393,-0.0361440880560727,-1.91044852036093,-0.310454624062827,-0.283008311207414,0.0151575263730786,0.0267952513199255,0.00774152857041129
0.27,1,-0.0234890794600258,0.010457675913775,0.0132958972950428,-0.0921862442904955,0.0203660186569821,0.0258390046896776,-0.0195420189011302,-0.15683462019715,-0.00525935646636352,0.349152094078392,0.021586759036022,-1.99513738415682,-0.302357046215196,-0.278623818679362,0.010437330240791,0.0299996948149052,0.00287891272723574
0.3,1,-0.0209204382457961,0.00728375092827133,0.00826542964974924,-0.0771050141911069,0.0571713410850347,0.00925728120771915,-0.0153508102664266,-0.152724794254382,-0.0054831588691875,0.343277281004262,0.0737835830764692,-1.90919726147242,-0.291543321024201,-0.270373648284351,0.00826542964974924,-0.00138859218115787,0.00186671549628183
0.33,1,-0.0193487350077822,0.000559506007059949,0.010396638894823,-0.0672221035391298,0.0200048829615162,-0.000147506129133986,-0.0233059684031699,-0.149998474074526,-0.00489313435265155,0.314025289671519,0.0885850601723279,-1.6940265104119,-0.267153945534633,-0.247637358724733,0.0115665150914029,0.0152185633920306,0.00167851802117985
0.36,1,-0.0139876501764987,0.00791955320902127,0.00883510849330119,-0.06513667205827,0.00817387412132125,0.0189011302021343,-0.0235501164789778,-0.146539709667247,-0.00615456607765943,0.279295225887834,0.110522782067324,-1.40446689250364,-0.247266050192775,-0.233049511195207,0.00528987497583951,0.0318308053834651,0.00167851802117985
0.39,1,-0.00940478733685313,0.00386567786695964,0.00536617124952951,-0.0561744031088188,0.0342315947955768,0.0194911547186702,-0.0464389985859757,-0.142368846705527,-0.00503555406353954,0.248654642373933,-0.0192368338063702,-1.13901689708141,-0.245557013662119,-0.235913164667704,0.00495417137160354,0.00985747856074709,0.00167851802117985
0.42,1,-0.00453199865718558,0.00586464023763746,0.000391654204941964,-0.0467848750267037,0.0290688802758873,0.0117699718212429,-0.0384024577572965,-0.142877488530127,-0.00493382569861955,0.244280322682374,-0.075960570085757,-0.978484450819422,-0.249697358114363,-0.244916124963123,-0.000371308531957966,0.00723288674581133,0.00167851802117985
0.45,1,-0.00351980142623168,-0.00454217149367758,0.00140893785414187,-0.0409354940438042,0.0172785627816604,0.0103203426211331,-0.0316476943266091,-0.144077883236183,-0.0065004425183874,0.237891781365398,-0.143528550065615,-0.878994109927671,-0.252098147526475,-0.248379975788649,0.00357066560869167,0.0137638477736747,0.00167851802117985
0.48,1,-0.00156661681976786,-2.54320912299977e-05,0.00202948088015381,-0.0361949522385327,0.0156153040152186,0.0131992553483688,-0.0187281919817703,-0.145970030823695,-0.0119937742240669,0.239417706839198,-0.177439700511694,-0.809528895942055,-0.247474593340861,-0.245689260536515,0.00150557980081586,0.0139316995757927,0.00167851802117985
0.51,1,-0.00223802402823979,-0.0032705669321777,0.0043031098361156,-0.0304066082745852,0.0211391542303741,0.0116529842015849,-0.0156559953611866,-0.142328155359559,-0.0161442915128025,0.2614113793349,-0.232011881873023,-0.747632272306487,-0.238685262611774,-0.236228522598956,0.00367239397361166,0.00702434359772535,0.00167851802117985
0.54,1,-0.00334686320586769,3.05185094759972e-05,0.00196335744295582,-0.0249641407513657,0.0154271065401166,0.00358592486342967,0.0142724895982747,-0.164281136509293,0.0117699718212429,0.19159520249031,-0.213034455397198,-0.777626880703146,-0.236849065624968,-0.233273313598031,0.00205491297138381,0.00809757784763126,0.00167851802117985
0.57,1,-0.00552893663340149,0.000152592547379986,0.00333160395112969,-0.0246945605843277,-0.00378938159326965,0.00829594815922524,0.0949430829798273,-0.174881232133956,0.153111362041078,0.0377005320393485,0.167485580004273,-1.05990783410138,-0.236793115024262,-0.231014943896807,0.0032349620044557,0.0196030559200822,0.00167851802117985
0.6,1,-0.00556962797936949,0.000152592547379986,0.00339772738832769,-0.0237637460453098,0.00951668853826512,0.0157424644713686,0.00938952808211514,-0.155593534145126,0.0406404817855363,0.0727764722637613,0.14887437564216,-0.89636422823776,-0.235618152409436,-0.229814549190751,0.00343333231604968,0.0152694275744906,0.00742617063915932
0.63,1,-0.00385550503046765,0.000152592547379986,0.00300607318338572,-0.022222561316772,0.00525427004811752,0.0141656748151087,0.0198065126499222,-0.180781477299315,-0.0355133721935687,0.032736187831253,0.139978230129907,-0.321242917162592,-0.227205216630553,-0.223115736360769,0.00254829554124577,0.0133111565497808,0.065741955829544
0.66,1,-0.00180059205908383,0.000152592547379986,0.000783308409883928,-0.0226803389589119,0.000152592547379986,0.0165105136265145,-0.00182093773206783,-0.17022207302062,0.0115461694184189,0.00183111056855983,0.112516658019756,0.0744295581937112,-0.218782108015178,-0.216762799971516,0.00120548112430189,0.0200608335622222,0.169296344899848
0.69,1,-8.6469110181992e-05,0.000152592547379986,0.000457777642139958,-0.0227973265785699,0.00148014770958586,0.0197047842850022,-0.010630614134139,-0.158645385092725,0.010671305480107,0.0493179113132115,0.0752433851130711,-0.00142419710887987,-0.19902137312947,-0.198756879380678,0.000289925840021973,0.0209967345194861,0.267967772453993
0.72,1,0.0010681478316599,0.000152592547379986,0.000457777642139958,-0.0210526851201921,0.00665812148401339,0.0168156987212745,-0.0130517492192348,-0.160964791812901,0.00670389924822738,0.0399131239763583,0.0633818577634002,0.0371969766329946,-0.17528305917539,-0.17627491073336,-0.00010681478316599,0.0137435021006907,0.370326853236488
0.75,1,0.00208543148085981,0.000152592547379986,0.000457777642139958,-0.021352783796706,0.000152592547379986,0.0172633035269224,-0.0152083905555386,-0.160150964893541,0.00684631895911537,0.0402081362346263,0.0669626962085838,0.011240984323659,-0.159418520666117,-0.161412396618549,-0.000701925717947935,0.0196844386120182,0.457996358124536
0.78,1,0.0032553076774397,0.000152592547379986,0.000457777642139958,-0.0206661173334961,0.00615965249590543,0.0192164881333862,-0.0119734285510829,-0.161982075462101,0.010793379518011,0.0533056632180751,0.0699738558102156,0.0172938220363984,-0.143147068697165,-0.146280302336701,-0.00138859218115787,0.0166020691549425,0.529272337005727
0.81,1,0.00567644276253548,0.00508133182775353,-0.000671407208471938,-0.0193385621712902,0.00193792535172582,0.0155695262510046,-0.00938952808211514,-0.163040050457269,0.00450656656595559,0.0478428500218716,0.0607267474389884,0.0139266131575467,-0.127531764681946,-0.133136997589038,-0.00442009745577359,0.0151626127913246,0.580039877519049
0.84,1,0.00620543026011943,-0.00171920936714784,-0.00313323363953571,-0.0177515996785384,0.00283822138126774,0.00829086174097924,-0.00658182521032339,-0.159825434125797,0.00530004781233151,0.0394350006612344,0.0141453291421247,0.00701925717947935,-0.116916409802545,-0.123020111697745,-0.00274157943459375,0.0127974283069348,0.598345896786401
0.87,1,0.0064750104271574,-0.00135807367168188,-0.00257881405072176,-0.0179957477543463,0.00452691223893958,0.00984221930600909,-0.00747703482161931,-0.158869187495549,0.00383515935748365,0.0288603371278013,-0.00626646727907142,0.0124312061932229,-0.108376313567512,-0.114719077120273,-0.00376903592028565,0.0162358470412305,0.599485254473505
0.9,1,0.00622068951485743,-0.00120548112430189,-0.000269580167037975,-0.0181839452294483,-0.00533056632180751,0.00749229407635731,-0.0142317982523067,-0.15744499038667,0.00525935646636352,0.0205389568773461,-0.00122582679728589,0.010884935046439,-0.103742586545406,-0.109820856349376,-0.00227362895596179,0.0207017222612181,0.598493402915535
0.93,1,0.00597654143904945,0.000137333292641987,-0.00306202378409172,-0.0166885382651245,0.00639871415346741,0.00711081270790735,-0.0168360443942585,-0.158177434614093,0.00707012136193935,0.0309406821904152,0.0289874975839513,0.0135298725343588,-0.0990681681773329,-0.104963326924446,-0.00320444349497971,0.0102949105299031,0.600848414563433
0.96,1,0.00558997365235349,0.000152592547379986,-0.00314849289427371,-0.0167699209570605,0.000152592547379986,0.0087282937101352,-0.0139062674845627,-0.160334075950397,0.00684631895911537,0.0401572720521663,0.0748619037446211,0.00879950356557919,-0.0942106387524033,-0.0997294025493128,-0.00291451765495773,0.0156407361064486,0.625446333201086
0.99,1,0.00579343038219347,0.000152592547379986,-0.00299081392864772,-0.0151829584643086,0.00718202256335134,0.0116326385286009,-0.011363058361563,-0.162755211035493,0.00576799829096347,0.0531683299254331,0.105436363821324,0.00394197414064964,-0.0856807153538621,-0.0913622445346436,-0.00300607318338572,0.0101626636555071,0.655674916837062
1.02,1,0.00782291126234728,0.00508133182775353,-0.00357575202693767,-0.0131789096753848,0.000956246630247912,0.00490330718914355,-0.0087588122196112,-0.162653482670573,0.00363170262764367,0.0562608722190008,0.0820337534714805,-0.0032705669321777,-0.0768964710430209,-0.0846176539404482,-0.00576291187271747,0.010915453555915,0.670252591530096
1.05,1,0.0097608366140731,0.00379955442976165,-0.00790429395428327,-0.010981576993113,0.00671915850296538,0.0086570838546912,-0.00263476465142776,-0.162144840845973,0.000640888698995941,0.0384228034302805,0.0361033967101047,-0.0075787631865393,-0.0694906460768456,-0.0791497543259987,-0.00791446679077527,0.00701417076123335,0.664347259946491
1.08,1,0.00986765139723909,0.000167851802117985,-0.00664286222927539,-0.0086876023641672,0.00137841934466587,0.00475580106000956,-0.00617491175064343,-0.158197780287077,0.00293994974618773,0.032619200211595,0.00997955259865108,-0.00811283710236925,-0.0622933642587563,-0.0720745465458134,-0.00572222052674947,0.00624612160608743,0.625380209763888
1.11,1,0.00843836787011322,-0.00343333231604968,-0.00208034506261381,-0.00788903469954527,0.000152592547379986,0.00613422040467544,-0.00831120741396323,-0.157200842310862,0.00401827041433963,0.0416933703624582,0.0138350576291187,0.00145980203660187,-0.0584480320647806,-0.0668151900794498,-0.00246691284930977,0.00749229407635731,0.564185511846268
1.14,1,0.00725831883704133,-0.00410982594276762,-0.00248725852229377,-0.00725323241879533,0.000152592547379986,0.00664286222927539,-0.00676493626717938,-0.157933286538285,-0.0010681478316599,0.0308338674072492,0.0192571794793542,-0.00309254229356772,-0.0555589465010529,-0.0627460554826502,-0.00279244361705374,0.00675984984893338,0.511480045981221
1.17,1,0.00717184972685934,-0.000590024516535946,-0.00191757967874182,-0.00665812148401339,0.000152592547379986,0.0065258746096174,-0.00645975117241941,-0.158035014903205,0.00157678965625985,0.0206101667327901,0.0170547603788364,-0.0102033550014751,-0.0522832931506292,-0.0594246243680125,-0.0032807397686697,0.00627155369731742,0.494755902788374
1.2,1,0.00718710898159734,0.000152592547379986,-0.00344350515254168,-0.00600705994852545,0.000152592547379986,0.00623086235134943,-0.00584938098289946,-0.159764397106845,0.00310271513005971,0.0260526342560096,0.0125939715770948,-0.00129195023448388,-0.0482395906450596,-0.0554114403719189,-0.00366222113711966,0.00572222052674947,0.488677632984405
1.23,1,0.00725831883704133,0.000152592547379986,-0.00367239397361166,-0.00525935646636352,0.000152592547379986,0.00615456607765943,-0.0076601458784753,-0.160476495661285,0.00234992522965178,0.0352844833724988,0.0128482924893948,0.00129703665272988,-0.0465254676961577,-0.0537074902595091,-0.00384533219397565,0.00507115899126153,0.489801731416771
1.26,1,0.00708029419843135,0.000152592547379986,-0.00376394950203965,-0.00464898627684357,0.000152592547379986,0.00566626992604348,-0.0065207881913714,-0.159967853836685,0.00137333292641987,0.0383312479018525,0.0143843907996867,0.00076296273689993,-0.0447096163823359,-0.0517187007253232,-0.00366222113711966,0.0043641468550676,0.492263557847835
1.29,1,0.00662251655629139,0.000152592547379986,-0.00376394950203965,-0.00302133243812372,0.00223802402823979,0.00197353027944782,-0.00574765261797947,-0.160130619220557,0.00133264158045188,0.0412610248115482,0.00836207159642323,0.0033061718598997,-0.0423495183161921,-0.0488804793440555,-0.00357066560869167,0.000295012258267973,0.493565680918811
1.32,1,0.0054526403597115,0.000152592547379986,-0.00341807306131169,-0.00248217210404777,0.00449639372946359,0.0032146163314717,-0.00302133243812372,-0.159520249031037,0.000640888698995941,0.0427462589393801,-0.00558488723410749,0.00752789900407931,-0.0398368277026683,-0.0452386038799198,-0.00296029541917173,0.00237027090263578,0.493423261207923
1.35,1,0.00357066560869167,0.000152592547379986,-0.00271614734336375,-0.00194301176997182,-0.00374360382905566,0.0010376293221839,-0.00367239397361166,-0.159276100955229,-0.00053916033407595,0.0414543087048962,-0.0289010284737693,0.0102643920204271,-0.0388297168899604,-0.0423189998067161,-0.00183111056855983,0.00477106031474756,0.501388592181158
1.38,1,0.000193283893347982,-0.000620543026011943,0.000518814661091952,-0.00101728364919991,0.00204474013489181,0.00169886369416384,-0.0142114525793227,-0.159194718263293,-0.0021261228268278,0.0390331736198004,-0.0166325876644185,0.0149642424797306,-0.0398571733756523,-0.0399182103946043,-0.000274666585283975,-0.0032553076774397,0.51839757479578
1.41,1,-0.00532039348531551,-0.00726340525528733,0.00522883795688752,-0.000752789900407931,0.00346893724377168,0.00087486393831192,-0.00973540452284311,-0.159154026917325,-0.000132246874395988,0.0377920875677765,0.0360728782006287,0.0256965849787896,-0.0441704560482599,-0.0386262601601204,0.00704977568895535,0.0010986663411359,0.546352529475794
1.44,1,-0.00830103457747124,-0.000386567786695964,0.00610370189519944,-5.08641824599953e-05,0.000233975239315978,0.000356049277219967,-0.00668355357524339,-0.158543656727805,-0.00192266609698782,0.0342417676320688,0.0514135156305633,0.0185247352519303,-0.0425529750460321,-0.0340281380657369,0.00527970213934751,0.000122074037903989,0.601407920570493
1.47,1,-0.0132552059490748,-0.00749738049460331,0.00778221991637928,0.00187180191452783,0.00774152857041129,-0.00114953052359589,-0.00346893724377168,-0.157689138462477,-9.15555284279916e-05,0.0350250760419528,0.0458693197424238,0.0135807367168188,-0.0367544582455926,-0.0232652770572019,0.011332539852087,-0.00620543026011943,0.685567796868801
1.5,1,-0.0178329823704744,-0.00808740501113926,0.0126855271055228,0.00627664011556342,0.0146387117119867,-0.00721254107282734,-0.00900296029541917,-0.162002421135085,-0.00208543148085981,0.0380565813165685,0.0670491653187658,0.0139062674845627,-0.0339467553738009,-0.0159001434369945,0.0146183660390027,-0.0142012797428307,0.80815047659739
1.53,1,-0.022044536678162,-0.00785342977182328,0.0158594520910265,0.011037527593819,0.0151371807000946,-0.0133671071504868,-0.00778221991637928,-0.162612791324605,-0.0033061718598997,0.0302845342366812,0.0938240709657074,0.00246182643106377,-0.0307524847153132,-0.00845362712485122,0.0170496739605904,-0.0194606362091942,0.935148167363506
1.56,1,-0.0260831527654856,-0.00816878770307525,0.0188604388561663,0.0163680939156265,0.0150151066621906,-0.0202642902920621,-0.00831120741396323,-0.164810124006877,-0.00599180069378745,0.0184331797235023,0.112938830734174,-0.00207525864436781,-0.0268562883388775,-0.000640888698995941,0.0197861669769382,-0.0244249804172898,1.02552364675843
1.59,1,-0.0289518926562293,-0.0043234555090996,0.0208644876450901,0.0192876979888302,0.00336720887885169,-0.0229499191259499,-0.00611387473169144,-0.165583259580269,-0.00888088625751518,-0.0102745648569191,0.119612211472925,-0.00472019613228757,-0.0226854253771579,0.00633767713451542,0.0196132287565742,-0.021586759036022,1.05628630431023
1.62,1,-0.033051545762505,-0.00990834274320709,0.0227464623961099,0.0236314991709138,0.0168156987212745,-0.0232347585477259,0.00393688772240364,-0.161025828831853,-0.00737530645669932,-0.0407829014964243,0.121463667714469,-0.00848414563432722,-0.0118818730226549,0.02122053692231,0.0248013753674937,-0.0299590034689372,1.05070141707612
1.65,1,-0.0357270017599007,-0.00569678843551948,0.0260017700735496,0.0299386577959532,0.0148319956053346,-0.0350759402244128,-0.00786360260831528,-0.160496841334269,-0.00517797377442752,-0.0625731172622862,0.136529638559119,-0.00923693553473515,-0.0054322946867275,0.0303659169286172,0.0256965849787896,-0.0397045808282723,1.03986734621214
1.68,1,-0.0382905565558845,-0.0064800968454034,0.0242723878699098,0.0348114464756208,0.0156559953611866,-0.0383515935748365,0.00593076367483545,-0.157770521154413,-0.0022075055187638,-0.0782392854599648,0.153853979104994,-0.00782291126234728,0.00242113508509578,0.0408846298613442,0.0261136712749616,-0.0409049755343282,1.03860591448714
1.71,1,-0.0396842351552883,-0.0021973326822718,0.0271919919431135,0.0421460615863521,0.021963153986226,-0.0501724295785394,-0.00509659108249153,-0.161269976907661,-0.00228888821069979,-0.0907010101626637,0.173039948728904,-0.00860621967223121,0.0114240953805149,0.0513219601021353,0.0259509058910896,-0.0531123793247271,1.0391654204942
1.74,1,-0.0402844325083163,0.000101728364919991,0.0244758445997497,0.0477512944934436,0.0177515996785384,-0.0553605761894589,0.010813725190995,-0.158584348073773,0.00206508580787581,-0.0878933072908719,0.194779300312306,-0.00677510910367138,0.02203436384167,0.0625527715893022,0.0245674001281777,-0.053763440860215,1.04862615843176
1.77,1,-0.0408744570248522,0.000152592547379986,0.0246894741660817,0.0585446740114546,0.0344960885443688,-0.0751263974934131,-0.00180059205908383,-0.163874223049613,7.12098554439934e-05,-0.0925016022217475,0.234473708304086,-0.00456760358490758,0.0365611743522446,0.0776594337799209,0.0249946592608417,-0.0774051128676209,1.048320973337
1.8,1,-0.0413220618305002,0.000152592547379986,0.0249641407513657,0.0675374614703818,0.0262560909858496,-0.0803348897773166,0.0164291309345785,-0.161432742291533,-0.000823999755851924,-0.10681478316599,0.259549750256864,-0.011200292977691,0.0530309966327911,0.0945768608661153,0.0251777703176977,-0.0797448652607807,1.04842270170192
1.83,1,-0.0415967284157842,0.000152592547379986,0.0254626097394737,0.0799991861730806,0.0411491236101362,-0.0987172053183589,0.000640888698995941,-0.164281136509293,0.000396740623187963,-0.128554134749392,0.315215511541083,-0.0228176722515539,0.0735292621641692,0.115329447309793,0.0254829554124577,-0.102094587033703,1.04559465315714
1.86,1,-0.0392773216956084,0.00752789900407931,0.0232856227301859,0.0896226894945118,0.0259305602181056,-0.101789401938943,0.010447503077283,-0.166152938423821,0.00751772616758731,-0.143965982034771,0.34995574816126,-0.0412813704845322,0.0930814539017914,0.132602923673208,0.0208136234626301,-0.0994903408917509,1.03921628467666
1.89,1,-0.0382905565558845,0.00299081392864772,0.0211188085573901,0.103162734865363,0.0447299620553199,-0.121422976368501,0.010732342499059,-0.164159062471389,0.00165817234819585,-0.173009430219428,0.398256375825271,-0.064638203070162,0.114485101880957,0.153029979349142,0.0224819686473179,-0.12533951841792,1.02830083112074
1.92,1,-0.032634459466333,0.0185043895789463,0.0172938220363984,0.113976460056358,0.0292265592415133,-0.125939715770948,0.0065004425183874,-0.179906613361003,0.00881984923856319,-0.22075055187638,0.452386038799198,-0.0790429395428327,0.139795119073051,0.172633035269224,0.0123701691742709,-0.124983469140701,0.988270719524725
1.95,1,-0.0231330301828059,0.0283415224667094,0.00349945575324768,0.122419914344717,0.0208950061545661,-0.127791172012492,-0.010793379518011,-0.204321420941801,0.0250556962797937,-0.23383281960509,0.575945310831019,-0.140202032532731,0.170720542008728,0.194077374594358,0.000254320912299977,-0.12935778883226,0.873307494328644
1.98,2,-0.0128381196529028,0.022024191005178,0.000366222113711966,0.125044506159652,-0.00229906104719179,-0.115705842259997,0.0344147058524328,-0.193741670990122,0.0253812270475377,-0.217047639393292,0.539038260038046,-0.247850988291065,0.205531988484349,0.218583737703584,-0.000488296151615955,-0.116407767977945,0.692749819432152
2.01,2,0.0174057232378104,0.0842819503362122,-0.0177922910245064,0.119510483108005,-0.0229804376354259,-0.0971098971526231,-0.00334686320586769,-0.194352041179642,0.0308338674072492,-0.204158655557929,0.550045269122389,-0.309579760124516,0.237027090263578,0.219712922554196,-0.0255643381043936,-0.103315327412742,0.467787713248085
2.04,2,0.0606301054923144,0.131168553727836,0.00200404878892382,0.0955432803328552,-0.106936857203894,-0.108025350708538,0.00584938098289946,-0.224056723736279,0.00422172714417961,-0.164484593239133,0.574948372854803,-0.291370382803837,0.270994191310363,0.210435295673493,0.0462457146926277,-0.131158380891344,0.285205643889686
2.07,2,0.149754325998718,0.293394777265745,0.0637836848048341,0.0318206325469731,-0.250170395011241,-0.123630481887265,-0.0466424553158157,-0.276548560034995,-0.010630614134139,-0.121117791273741,0.77924944812362,-0.164586321604053,0.310861537522507,0.161198767052217,0.0697958311716056,-0.132348602760908,0.214585812962228
2.1,2,0.289020457574185,0.477512944934436,0.032197027497177,-0.054729860326955,-0.300352997426272,-0.101219723095391,-0.0680054119490137,-0.297097689748833,0.00584938098289946,-0.00522883795688752,1.15118869594409,0.022044536678162,0.36909085360271,0.0801212602109846,0.0252489801731417,-0.0861740979237241,0.204738507237973
2.13,2,0.426465651417585,0.483118177841528,0.00750755333109531,-0.129856257820368,-0.242968026774906,-0.0474868007446516,0.0043031098361156,-0.226213365072583,0.00275683868933175,-0.0100507624540951,1.34709718110701,0.0898668375703197,0.446160262866095,0.0197963398134302,0.00148523412783186,-0.0317290770185451,0.141056550798059
2.16,2,0.554689168980987,0.448276212856431,-0.0146794030579546,-0.193685720389416,-0.201839248837753,0.0365204830062766,-0.0307931760612812,-0.10910367137669,-0.00961333048493912,0.021418907233904,0.946200954212063,0.0119479964598529,0.515849279254535,-0.0386110009053824,-0.0194962411369162,0.100924710837123,0.0378836430962045
2.19,2,0.667953530482905,0.388164922025208,-0.0282397941017894,-0.197347941526536,0.0727408673360393,0.097959328999705,-0.032888780378633,-0.0708741518397575,-0.0233873510951059,0.022253079826248,0.339503158665731,-0.196279793694876,0.552664774519079,-0.115085299233985,-0.0313730277413251,0.120909248125655,0.00934883673614714
2.22,2,0.745475630970183,0.266645303710033,-0.0251523382264677,-0.124383271787673,0.298857590461948,0.0466780602435377,-0.0407625558234403,-0.0642414624469741,-0.0132755516220588,-0.182358266955575,-0.170318714967294,-0.285475224056724,0.556199835200049,-0.189011302021343,-0.0264137699514756,0.0455336161381878,0.00320444349497971
2.25,2,0.783847570218004,0.13446963916949,-0.0423851232439141,-0.0259407330545976,0.346766563921018,-0.00277209794406974,-0.0623900062054303,-0.0348419649850968,-0.0146387117119867,-0.0161849828587705,-0.723868526261177,-0.293608406832077,0.528316090375479,-0.255272072511979,-0.0681681773328857,-0.0351013723156428,0.00194301176997182
2.28,2,0.748563086845505,-0.118427076021607,-0.11304564551734,0.0402437411623483,0.182307402773115,-0.0506403800571713,-0.21296833196,0.0797652109337647,-0.0341909034496089,-0.112033448286386,-1.6075014496292,-0.383963540554013,0.461139764600564,-0.287204606260364,-0.119062878302357,-0.0709758802046775,0.00167851802117985
2.31,2,0.638940600807723,-0.370423495183162,-0.054343292540259,0.0451267026785078,-0.011332539852087,-0.0308694723349712,-0.115736360769473,-0.116143274229153,-0.0242215236874498,-0.0450148014770959,-2.48383027639597,-0.523250017802464,0.303613391521958,-0.335108493301187,-0.0564338104393648,-0.0173141677093824,0.00167851802117985
2.34,2,0.493163853877377,-0.492670471307515,-0.0151676992095706,0.0276345103305155,-0.0605639820551164,-0.000630715862503942,-0.0386059144871364,-0.241676076540422,-0.0232042400382499,-0.0607165746024964,-2.82410657063509,-0.425738293608407,0.128615171768344,-0.364314706869717,-0.00988291065197709,0.0053865169225135,0.00167851802117985
2.37,2,0.343918169703258,-0.50366222113712,0.0173294269641204,0.0151778720460626,-0.0298267565945413,0.0054424675232195,0.10676391898353,-0.409304076255582,-0.0313832005778171,0.0100456760358491,-2.73540960926135,-0.26408174891405,-0.0445010732342499,-0.388322600990834,0.0193385621712902,0.00385550503046765,0.00167851802117985
2.4,2,0.203650013733329,-0.468535416730247,0.0346842860194708,0.0133620207322408,-0.000503555406353954,-0.00183619698680583,0.086926887824132,-0.360881374553667,-0.0453199865718558,0.0715709911394594,-2.26110110782189,0.0208899197363201,-0.191147597684662,-0.394726401562548,0.0396435438093204,-0.00382498652099165,0.00167851802117985
2.43,2,0.0960468357392092,-0.364360484633931,0.0388449761446984,0.0128940702536088,0.000152592547379986,-0.00300607318338572,0.0942513300983713,-0.310932747377951,-0.0294503616443373,0.154794966480504,-1.70804467909787,0.422254097109897,-0.310154525386313,-0.406125064851833,0.0428276416313161,-0.00411999877925962,0.00167851802117985
2.46,2,0.0255389060131637,-0.24003824986521,0.0353912981556647,0.0124922432121749,0.000152592547379986,-0.00341298664306569,0.064668721579638,-0.236650695313374,-0.00709046703492335,0.162877285073397,-1.19912310149439,0.683563748079877,-0.395275734733116,-0.420763776563819,0.0361847794020407,-0.00411999877925962,0.00167851802117985
2.49,2,-0.00698365225175736,-0.113371176285084,0.0242316965239418,0.0121361939349549,0.000152592547379986,-0.00375377666554765,0.0488194423251035,-0.191930906094546,0.00237027090263578,0.179891354106265,-0.784290088605406,0.668497777235226,-0.453281248410494,-0.446073793755913,0.021556240526546,-0.00386059144871364,0.00167851802117985
2.52,2,-0.0174311553290404,-0.0354014709921567,0.0136112552262947,0.0118564409314249,0.000152592547379986,-0.00364696188238166,0.0424512466811121,-0.173701183100884,0.0119734285510829,0.21993672495702,-0.514394563636179,0.469842626219469,-0.491327656890571,-0.47366761274046,0.00962350332143111,-0.00366222113711966,0.00167851802117985
2.55,2,-0.0201676483453881,-0.00738547929319132,0.00702434359772535,0.0114851323994669,0.000152592547379986,-0.00363678904588967,0.0429395428327281,-0.153823460595518,0.0183823155410423,0.241279335917234,-0.326863409324422,0.183146661783705,-0.468901638843959,-0.448540706605223,0.00504064048178554,-0.00366222113711966,0.00167851802117985
2.58,2,-0.0209611295917641,-0.000162765383871985,0.00447096163823359,0.011179947304707,0.000152592547379986,-0.00359609769992167,0.043570258695232,-0.136326181829279,0.0207220679342021,0.241177607552314,-0.173411257260862,-0.0788242235582547,-0.380977813043611,-0.359777621794285,0.00352488784447768,-0.00366222113711966,0.00167851802117985
2.61,2,-0.0238553015737378,-0.00710063987141535,0.00382498652099165,0.010895107882931,0.000152592547379986,-0.00361644337290567,0.0477818130029196,-0.134881639047416,0.0141097242144027,0.212149418622395,-0.0281533249916074,-0.212098554439935,-0.293165888444675,-0.269076611631621,0.00496434420809554,-0.00352488784447768,0.00167851802117985
2.64,2,-0.0246945605843277,-0.00130720948922188,0.00492365286212755,0.010625527715893,0.000152592547379986,-0.00353506068096967,0.0448520360932239,-0.141351563056327,0.00491348002563555,0.182388785465051,0.126402579831334,-0.214387442650634,-0.208222703736483,-0.183299254331085,0.00455234433016958,-0.00320444349497971,0.00167851802117985
2.67,2,-0.0249794000061037,0.000137333292641987,0.00444044312875759,0.010396638894823,0.000152592547379986,-0.00341807306131169,0.0402335683258563,-0.152643411562446,-0.00308236945707572,0.165969827366965,0.26164026815597,-0.143401389609465,-0.13454593544318,-0.109337646616006,0.00396740623187963,-0.00320444349497971,0.00167851802117985
2.7,2,-0.0252286345001577,0.000152592547379986,0.00392671488591164,0.0102237006744591,0.000152592547379986,-0.00314849289427371,0.0281278929003774,-0.165847753329061,0.000905382447787917,0.143197932879625,0.381852676981923,-0.0357371745963927,-0.0669321776991079,-0.0414899136326182,0.00419629505294961,-0.00320444349497971,0.00167851802117985
2.73,2,-0.0290027568386893,-0.011363058361563,0.00499486271757154,0.0086977752006592,-0.00715150405387534,-0.00263476465142776,-0.3078198594114,-0.229977314574623,0.157628101443525,-0.0839920244961903,0.140008748639383,-0.325678273873104,-0.0331888790551469,-0.00400301115960163,0.00583920814640746,-0.00195318460646382,0.0183670562863043
2.76,2,-0.0454929247922198,-0.0525172683899452,0.011129083122247,-0.00881476282031719,-0.0738598793501592,0.00790938037252927,-0.00399792474135563,-0.203283791619617,-0.00208543148085981,-0.0180364391003143,0.161549729911191,-0.0570797855566067,-0.0243792026530758,0.0211849319945881,0.0157933286538285,0.0183517970315663,0.153843806268502
2.79,2,-0.0512660095014293,-0.0205186112043621,0.0209814752647481,-0.0492060101117995,-0.139245785902483,0.0534938606931771,-0.0779137546922208,-0.133457441938536,0.0294910529903053,-0.0288959420555233,0.249682098859625,0.326080100914538,-0.0310932747377951,0.0202490310373241,0.0291756950590533,0.075604520808537,0.280231126845098
2.82,2,-0.0482904548275196,0.0120344655700349,0.032934558142847,-0.0741142002624592,-0.0551266009501429,0.0644296599220761,-0.0396028524633524,-0.204443494979705,-0.0358999399802647,-0.0684479303364157,0.385718354848883,0.374884283984904,-0.0226803389589119,0.0256762393058056,0.0265968810083316,0.0630207220679342,0.406333607999919
2.85,2,-0.0464644306772057,0.00657673879207739,0.0197098707032482,-0.0857977029735201,-0.0352539648630228,0.0485244300668355,-0.0578936124759667,-0.153721732230598,-0.0302438428907132,-0.00814335561184525,0.354004537085075,-0.043361715547146,-0.00520849228390352,0.0413169754122542,0.0224311044648579,0.0491398866746015,0.517095451724804
2.88,2,-0.0483616646829636,-0.00428276416313161,0.0316578671631011,-0.0989766126489049,-0.0418764814193141,0.0567746004618468,-0.0590736615090386,-0.154759361552782,-0.00808740501113926,-0.043270160018718,0.344670959603666,-0.000681580044963937,-0.011185033722953,0.0372478408154546,0.032359792881049,0.0578681803847367,0.586769208858506
2.91,2,-0.0487736645608895,-6.10370189519944e-05,0.0303303120008952,-0.110512609230832,-0.032217373170161,0.0574256619973347,-0.0470493687754957,-0.15683462019715,-0.0132552059490748,-0.0459761345255898,0.360067547634307,0.0426241849014761,-0.0297708059938353,0.0190740684224982,0.0299539170506912,0.0586464023763746,0.64971363465275
2.94,2,-0.0510320342621133,-0.00635293638925342,0.0319172744936471,-0.117786187322611,-0.0198573768323822,0.054399243140965,-0.0468459120456557,-0.150812300993886,-0.00768049155145929,-0.0237840917182938,0.34484389782403,0.0145878475295267,-0.0415763827428002,0.00952177495651112,0.0337178665527309,0.0530106509598071,0.731406598101749
2.97,2,-0.0524460585345012,-0.00249234494053977,0.0349335205135248,-0.126239814447462,-0.0297097689748833,0.0598722291736605,-0.0553910946989349,-0.150100202439446,-0.00951160212001912,-0.0171870072532324,0.343541774753054,0.0658945483769239,-0.0581581062247587,-0.00553910946989349,0.0334025086214789,0.0605080314544104,0.84720908230842
3,2,-0.0551672922961109,-0.0075736767682933,0.0363526312041587,-0.135771762240465,-0.0269580167037975,0.0631936602882982,-0.0354523351746167,-0.176854762413404,-0.0148014770958586,-0.0087282937101352,0.343958861049226,-0.0250913012075157,-0.0505640837834813,0.00471002329579557,0.0377564826400545,0.0644805241045361,0.980315561387982
3.03,2,-0.0564948474583168,-0.00399792474135563,0.0356049277219967,-0.137811415957111,0.00205999938962981,0.0534887742749311,-0.0282906582842494,-0.174474318674276,-0.00729392376476333,-0.00683105970437737,0.332911160618915,-0.00252794986826177,-0.0298979664499853,0.0266579180272835,0.0357880387788527,0.0517136143070772,1.09063997314371
3.06,2,-0.0605792413098544,-0.0121361939349549,0.0421460615863521,-0.133991515854366,0.0158696249275185,0.0422986541337321,-0.0270292265592415,-0.165074617755669,-0.0139876501764987,-0.0173446862188584,0.311604154586423,-0.00227871537420779,-0.0137791070284127,0.0468967762281157,0.043427838984344,0.0416577654347362,1.13784702088483
3.09,2,-0.0611743522446364,-0.00170395011240984,0.0399843338318023,-0.120481988992991,0.054516230760623,0.0297097689748833,-0.0266630044455295,-0.161025828831853,-0.010650959807123,-0.0270597450687175,0.321558275093844,0.00444552954700359,-0.00962350332143111,0.0516322316151413,0.0387585070345164,0.0172327850174464,1.14199245175532
3.12,2,-0.0612608213548184,0.000122074037903989,0.0375377666554765,-0.102491327656891,0.054068625954975,0.00721254107282734,-0.0412305063020722,-0.156305632699566,-0.0156763410341706,-0.0390535192927844,0.311939858190659,-0.00520849228390352,-0.0171208838160344,0.0441908017212439,0.0373851741080966,0.00638854131697541,1.12469862971892
3.15,2,-0.0613422040467544,0.000152592547379986,0.0372224087242246,-0.0962146875413272,0.0129500208543148,0.0118717001861629,-0.0279651275165054,-0.155329040396334,-0.0128686381623788,-0.0528173670664591,0.30649739066744,-0.0131636504206468,-0.0252896715191097,0.0361542608925647,0.0374156926175726,0.0260831527654856,1.10720135095269
3.18,2,-0.0613727225562304,0.000152592547379986,0.0375275938189845,-0.0843022960091962,0.0463677887305317,0.0180873032827743,-0.0131534775841548,-0.158380891343933,-0.010671305480107,-0.0536210211493271,0.326354767499822,-0.00578834396394747,-0.0207525864436781,0.0406913459679963,0.0375682851649525,0.011118910285755,1.09720145268105
3.21,2,-0.0614947965941343,0.000152592547379986,0.0376496678568885,-0.0593686737673065,0.0822473830378124,0.000610370189519944,-0.0269478438673055,-0.159113335571357,-0.010549231442203,-0.0495620593890194,0.356771548610899,-0.00556454156112349,-0.00774152857041129,0.0538346507156591,0.0376903592028565,-0.022125919370098,1.09850357575203
3.24,2,-0.0614947965941343,0.000152592547379986,0.0377717418947925,-0.0446994435458439,0.0335296690776289,-0.00616473891415143,-0.0259712515640736,-0.161961729789117,-0.011240984323659,-0.0615558336130863,0.379548529516485,-0.0223598946094139,-0.00459812209438358,0.0570085757011628,0.0376903592028565,-0.00359101128167567,1.09962258776615
3.27,2,-0.0600299081392865,0.0054221218502355,0.0363882361318807,-0.0298471022675253,0.0537329223507391,-0.00331634469639169,-0.00086469110181992,-0.161798964405245,-0.0130720948922188,-0.075757113355917,0.45163324889879,-0.0272428561255735,0.0148930326242866,0.0751670888393811,0.0349640390230008,-0.0135298725343588,1.09056876328827
3.3,2,-0.0509862564978993,0.0284229051586454,0.0258491775261696,-0.00271614734336375,0.0904772077598397,-0.0238044373912778,-0.0271106092511775,-0.164036988433485,-0.00269580167037975,-0.0634683268735822,0.582588173060294,-0.0312102623574531,0.0456963815220598,0.0968759219133071,0.0202439446190781,-0.0453708507543158,1.06758832565284
3.33,2,-0.0348317921486048,0.0487177139601835,0.00256355479598376,0.0227057710501419,0.0735801263466292,-0.0485244300668355,-0.0458286283964558,-0.172378714356924,-0.00900296029541917,-0.0611082288074384,0.769880265714489,-0.00692770165105136,0.086692912584816,0.121738334299753,-0.00210577715384381,-0.0486261584317555,1.05172887356182
3.36,2,-0.00827051606799524,0.0721864477472254,-0.00907417015086317,0.0513626514481033,0.097791477197587,-0.0721762749107334,0.0454420606097598,-0.139215267393007,0.00116987619657989,-0.0461643320006917,0.676279997151606,-0.000925728120771915,0.130659911903236,0.139123711864579,-0.0225633513392539,-0.0746279285053051,1.02439446190781
3.39,2,0.033000681580045,0.117140212205369,-0.0733664967802972,0.086784468113244,0.114118879767245,-0.103793450727866,0.0195623645741142,-0.154433830785038,-0.0123803420107629,-0.043234555090996,0.691885128330332,0.0441806288847519,0.172897529018016,0.139947711620431,-0.0781985941139968,-0.109500411999878,0.999409975483464
3.42,2,0.0597857600634785,0.0766421501307209,-0.0734580523087252,0.115573595385601,0.0788801741589607,-0.122114729249957,0.0160629088208665,-0.170059307636748,-0.0165308592994985,-0.0601723278501745,0.550401318399609,0.0180262662638223,0.208878851690217,0.14915412864569,-0.0745567186498611,-0.126875616728212,0.989816990671509
3.45,2,0.0809554328033286,0.0577715384380627,-0.0770897549363689,0.1349019847204,0.0526444288460952,-0.137872452976063,0.0301014231798252,-0.169977924944812,0.00556454156112349,-0.0623900062054303,0.471978921882789,0.00301115960163172,0.239590645059562,0.158736940621153,-0.0781782484410128,-0.140883612577695,0.983224992624694
3.48,2,0.0922879726554155,0.0281075472273934,-0.0710165715506455,0.145390179143651,0.0155949583422346,-0.142663858963795,0.0349030020040488,-0.186213771986043,-0.010711996826075,-0.0833562222154403,0.318725140130823,0.011179947304707,0.263435773796808,0.171229183833328,-0.0703553371786655,-0.145980203660187,0.936958932259082
3.51,2,0.0957976012451552,0.00343841873429568,-0.0464796899319437,0.141748303679515,-0.0316273486536251,-0.139805291909543,0.0312814722128971,-0.19235816522721,0.00560523290709148,-0.054648477635019,0.124179815057833,0.0465814182968637,0.276507868689027,0.180781477299315,-0.0406811731315043,-0.148737042349518,0.729107537054557
3.54,2,0.097343872391939,0.000223802402823979,-0.0100100711081271,0.108249153111362,-0.150741091138442,-0.128167566962696,-0.00782291126234728,-0.242693360189622,0.000274666585283975,-0.0262764366588336,-0.0608640807316304,-0.0164494766075625,0.277972757143874,0.180730613116855,0.0275175227108575,-0.146621092359183,0.446485793633839
3.57,2,0.115888953316853,0.0685140537736137,0.0781884212775048,0.0271614734336375,-0.314940844955799,-0.10773033845027,-0.00749738049460331,-0.28253018789229,0.00462864060385957,-0.0482192449720756,-0.0579139581489507,0.0401420127974283,0.270627969196651,0.154830571408226,0.0826949878434604,-0.115736360769473,0.278135522527746
3.6,2,0.159764397106845,0.164820296843369,0.0730613116855373,-0.0797143467513047,-0.36603900265511,-0.0670389924822738,-0.100232957955667,-0.258115380311492,-0.0103050833663951,0.0695415102593056,0.297514776045005,0.117099520859401,0.281116163619902,0.121422976368501,0.0701417076123336,-0.0505589973652354,0.221096428317108
3.63,3,0.204209519740389,0.170618813643808,0.0489415163630075,-0.169286172063356,-0.284788557593514,-0.00392671488591164,0.0513423057751193,-0.212093468021688,-0.00831120741396323,0.1272723573514,0.367961668752098,0.368002360098066,0.30105492314422,0.0969369589322591,0.0472629983418277,0.0125939715770948,0.114098534094262
3.66,3,0.255928220465712,0.190364289274778,0.0333160395112969,-0.225491093681651,-0.144179611601103,0.0743532619200212,0.0955737988423312,-0.23805454674927,0.0224107587918739,0.0140283415224667,0.369792779320658,0.35249895728426,0.323007904293954,0.0672017578661458,0.0277718436231574,0.119317199214657,0.0260119429100416
3.69,3,0.305948057496872,0.183304340749331,0.0209051789910581,-0.196244188767154,0.192632831812494,0.0885748873358359,0.0892259488713238,-0.209285765149897,0.0256660664693136,0.0372631000701926,0.368846705526902,-0.0634072898546302,0.346100243130792,0.0402335683258563,0.0185857722708823,0.100782291126235,0.00663268939278339
3.72,3,0.347849971007416,0.154098127180802,0.0194504633727022,-0.0985442670979949,0.367931150242622,0.0317290770185451,0.0487380596331675,-0.158869187495549,0.0227362895596179,0.0298369294310333,0.299101738537757,-0.104953154087954,0.36619159520249,0.0184636982329783,0.0178533280434584,0.0209051789910581,0.00264493748791976
3.75,3,0.381481368449965,0.124973296304209,0.0242723878699098,0.0133162429680268,0.392173019603056,0.0114953052359589,0.011139255958739,-0.150812300993886,0.0138655761385947,-0.021556240526546,0.226854253771579,-0.179428490045879,0.381593269651377,0.000274666585283975,0.0368053224280526,-0.0128177739799188,0.00181076489557583
3.78,3,0.429263181452885,0.172266813155512,0.054821415855383,0.116377249468469,0.342641478723512,-0.0116784162928149,0.0253405357015697,-0.198950163274026,0.0180974761192663,-0.108788313445438,0.383332824691509,-0.220272428561256,0.397991882076479,-0.0310780154830571,0.0558997365235349,-0.0185247352519303,0.00167851802117985
3.81,3,0.503850418612222,0.259356466363516,0.0332448296558529,0.192622658976002,0.23810541093173,-0.0183416241950743,-0.00139367859940387,-0.181534267199723,0.00466933194982757,-0.142623167617827,0.543605863622954,-0.223192032634459,0.427930539872433,-0.075655384990997,0.0292875962604653,-0.0253405357015697,0.00167851802117985
3.84,3,0.595965453047273,0.298165837580493,0.0196539201025422,0.234728029216386,0.112175867997274,-0.011342712688579,0.00890123193049918,-0.155369731742302,-0.0149032054607786,-0.13047680084638,0.548834701579841,-0.0917081209753716,0.463576158940397,-0.13281655323954,0.011281675669627,-0.00515762810144353,0.00167851802117985
3.87,3,0.685008290861741,0.293303221737317,0.00612404756818344,0.249539679148737,0.0390331736198004,0.0053814305042675,-0.0130314035462508,-0.128228603981648,-0.0129907122002828,-0.0859502955209001,0.500696839299702,-0.0480463067517116,0.497044790999074,-0.187709178950367,0.00515762810144353,0.0147913042593666,0.00167851802117985
3.9,3,0.760093997009186,0.2573422447381,0.00455743074841558,0.255948566138696,0.0260729799289936,0.0114749595629749,-0.0279651275165054,-0.100151575263731,-0.00289925840021973,-0.0583513901181066,0.350698365225176,0.032319101535081,0.522812585833308,-0.237047435936562,0.00855535548977121,0.0171920936714784,0.00167851802117985
3.93,3,0.834477777438683,0.244554989267658,0.00776187424339529,0.260109256263924,0.0184636982329783,0.0162053285317545,-0.0732952869248533,-0.0583208716086306,0.0129296751813308,-0.0919624418876715,-0.0167851802117985,0.011210465814183,0.532832829777927,-0.301400799584948,0.00633767713451542,0.0177821181880144,0.00167851802117985
3.96,3,0.905901262449009,0.23815627511419,-0.00309254229356772,0.265104118981496,0.0223802402823979,0.0160730816573585,-0.0282499669382814,-0.102348907946003,0.0087384665466272,-0.159316792301197,-0.325754570146794,-0.0189214758751183,0.521764783674632,-0.383943194881029,-0.00332651753288369,0.0139266131575467,0.00167851802117985
3.99,3,0.955209000925728,0.173619800408948,0.00252286345001577,0.266080711284727,0.00256355479598376,0.0161442915128025,0.021922462640258,-0.137628304900255,-0.00314340647602771,-0.19973347168391,-0.567003387554552,-0.042980234178696,0.493402915534939,-0.461561937314982,0.00697856583351136,0.0192266609698782,0.00167851802117985
4.02,3,0.978148747215186,0.0882747886593219,0.0195725374106062,0.265078686890266,0.000152592547379986,0.0195725374106062,0.0361033967101047,-0.13317260251676,-0.0163884395886105,-0.186641031118707,-0.743898841313924,0.010396638894823,0.454741050447096,-0.523143203019298,0.0294656208990753,0.02157658619953,0.00167851802117985
4.05,3,0.993296100751773,0.0596942045350505,0.0373241370891446,0.264366588335826,0.000152592547379986,0.021408734397412,0.0984425387330749,-0.173924985503708,-0.0174667602567624,-0.154769534389274,-0.840907010101627,0.00502029480880154,0.406710002950123,-0.586367381817072,0.0371664581235186,0.022125919370098,0.00167851802117985
4.08,3,1.0042573320719,0.043092135380108,0.0261747082939136,0.263924069948424,0.000152592547379986,0.0146997487309386,0.117893002105777,-0.154555904822942,-0.022146265043082,-0.138701539150161,-0.810449537644581,-0.0714082257555874,0.357366659545681,-0.64666178370515,0.00664794864752139,-0.0243079927976318,0.00167851802117985
4.11,3,0.999089531133966,-0.0130161442915128,-0.00924202195298115,0.257194738608966,-0.0353963845739107,-0.0239824620298878,0.0505691702017273,-0.087232072918892,-0.0244046347443058,-0.137023021128981,-0.91555019786167,-0.137724946846929,0.30652282275867,-0.692322560299488,-0.00752281258583331,-0.0477716401664276,0.00167851802117985
4.14,3,0.979715364034954,-0.0623493148594623,0.00315866573076571,0.231574449903867,-0.101819920448419,-0.0233822646768598,0.0618203273618783,-0.0837936541845963,-0.0258288318531856,-0.0923388368378755,-1.02342804244107,-0.200435397401858,0.246996470025737,-0.732469659515163,0.00492365286212755,-0.011312194179103,0.00167851802117985
4.17,3,0.952655618966236,-0.0897498499506617,0.00969979959512111,0.201401816868597,-0.0956348358612832,0.0076448866237373,0.121046581418297,-0.0936409599088514,-0.0305083366395052,-0.0186315500350963,-0.933876562802006,-0.17711416974395,0.228680277921893,-0.723756625059765,0.0132145146031068,0.010533972187465,0.00167851802117985
4.2,3,0.920117801446577,-0.106626585690888,0.0187027598905403,0.192124189987894,-0.0197251299579862,0.00076296273689993,0.12900173955504,-0.0996225877661468,-0.0202948088015381,0.0596331675160985,-0.763196712139246,-0.123416852320933,0.261955626087222,-0.657887508774072,0.0206712037517421,-0.011307107760857,0.00167851802117985
4.23,3,0.889670501826024,-0.100339772738833,0.021891944130782,0.19062878302357,-0.00883510849330119,-0.0100405896176031,0.125888851588488,-0.117180903551337,-0.010935799228899,0.0987833287555569,-0.539602852463352,-0.0959451073742892,0.245353556932279,-0.644088056072675,0.0228024129968159,-0.0176549577318644,0.00167851802117985
4.26,3,0.867493718273466,-0.0737378053122552,0.0210069073559781,0.184565772474339,-0.0258339182714316,-0.0122074037903989,0.412844223354798,-0.13073112175868,0.0369986063214006,0.0533514409822891,0.116128014974415,0.111718090355134,0.249412518692587,-0.617831965086825,0.0209865616829941,-0.00901313313191117,0.00167851802117985
4.29,3,0.865433718883836,-0.00952686137475712,0.0136010823898027,0.17777540411593,-0.0203609322387361,-0.00334686320586769,0.0255846837773776,-0.0741091138442132,0.0292469049144973,0.176285083569852,0.330505284788558,-0.181473230180771,0.268155969929095,-0.597033600878933,0.00845362712485122,-0.00461846776736758,0.00167851802117985
4.32,3,0.866181422365998,0.00118513545131789,0.00602740562150945,0.175328836939604,-0.0076245409507533,-0.0043539740185756,0.0558386995045829,-0.148065635141046,0.00477106031474756,0.00658691162856939,0.29922381257566,-0.135624256111332,0.287560655537584,-0.578402050843837,0.00411999877925962,-0.00885036774803919,0.00167851802117985
4.35,3,0.861390016378267,-0.0146132796207567,0.00626138086082542,0.174932096316416,-0.00391145563117364,-0.00780256558936328,0.0425326293730481,-0.157811212500381,0.0021668141727958,0.0469018626463617,0.305942971078626,-0.141397340820541,0.296639912106693,-0.564485610522782,0.00804162724692526,-0.0114139225440229,0.00167851802117985
4.38,3,0.855403302102725,-0.0186925870540483,0.00859096041749321,0.172602516759748,-0.00876898505610319,-0.00879441714733319,0.043875443789992,-0.17408775088758,0.00131229590746788,0.0608335622221544,0.34606463820307,-0.0812046672973825,0.314325388348033,-0.540874457024852,0.0097455773593351,-0.00722271390931934,0.00167851802117985
4.41,3,0.852687154759362,-0.00798567664621926,0.00919115777052115,0.16973886328725,-0.0100558488723411,-0.00572222052674947,-0.105522832931506,-0.262245551927244,0.0848923205257322,-0.0970641193884091,0.286645100253304,-0.00733461511073133,0.334610024313079,-0.517843155206966,0.00842310861537523,-0.00446587521998759,0.00304167811110772
4.44,3,0.85260068564918,-0.000233975239315978,0.00707520778018535,0.169820245979186,-0.000167851802117985,-0.00380464084800765,-0.0941089103874833,-0.271217993713187,0.010874762209947,0.0882951343323059,0.114815719066947,-0.169749036123742,0.344543799147516,-0.507817824844101,0.00642414624469741,-0.00849431847081922,0.00197861669769382
4.47,3,0.854106265449995,0.000152592547379986,0.0064902696818954,0.167439802240059,-0.0076499730419833,-0.0032451348409477,0.0677205725272378,-0.148065635141046,-0.0263781650237536,0.065050202948088,0.190323597928811,0.141331217383343,0.357147943561103,-0.49671926023133,0.00608844264046144,-0.00501520839055554,0.00168360443942585
4.5,3,0.859848831649729,0.00788903469954527,0.0053916033407595,0.166620888902453,0.000122074037903989,-0.00401827041433963,0.0272123376160975,-0.115716015096489,0.0275175227108575,0.0702434359772535,0.120395519882809,0.0722525711844234,0.367992187261574,-0.491648101240069,0.00410982594276762,-0.00717184972685934,0.00167851802117985
4.53,3,0.863261818292795,0.0011139255958739,0.0043844925280516,0.164454074729657,-0.00630715862503942,-0.00282296212652974,0.0601723278501745,-0.141860204880927,0.0453199865718558,-0.0357626066876227,0.156854965870134,-0.0574816125980407,0.37481307412946,-0.488184250414543,0.00493382569861955,-0.00338246813358969,0.00167851802117985
4.56,3,0.867549668874172,0.00442518387401959,0.00489822077089755,0.164713482060203,0.000289925840021973,-0.00234483881140578,0.0257881405072176,-0.162917976419365,-0.0128686381623788,0.00536617124952951,0.143269142735069,-0.0849075797804702,0.370779544460382,-0.496520889919736,0.0043234555090996,-0.00621051667836543,0.00167851802117985
4.59,3,0.872605568610696,0.00718710898159734,0.00313832005778171,0.166264839625233,0.00126143172500788,-0.00418103579821162,0.0185247352519303,-0.184870957569099,-0.00792463962726727,0.0492873928037355,0.164321827855261,0.0296995961383913,0.375662505976541,-0.496714173813084,0.00287382630898974,-0.0086876023641672,0.00167851802117985
4.62,3,0.881842504145431,0.022222561316772,0.00076296273689993,0.167943357646413,0.00523392437513352,-0.00306202378409172,0.0360830510371207,-0.156997385581022,0.00479140598773156,0.0568102053895688,0.187653228349661,-0.00904873805963317,0.386130354726808,-0.495488347015798,-0.000152592547379986,-0.00857061474450921,0.00167851802117985
4.65,3,0.895352031006806,0.0382702108829005,-0.00334177678762169,0.169225135044404,0.000183111056855983,-0.0065411338643554,0.0265002390616576,-0.156854965870134,-0.00230923388368379,0.0384329762667725,0.205242062644327,-0.000717184972685934,0.398078351186661,-0.497054963835566,-0.00501520839055554,-0.00854518265327921,0.00167851802117985
4.68,3,0.907233904029461,0.0348673970763268,-0.00516271451968953,0.170537430951872,0.000152592547379986,-0.0075584175135553,0.0404980620746483,-0.156285287026582,-0.00304167811110772,-0.00883002207505519,0.204168828394421,-0.0121565396079389,0.410245063631092,-0.496785383668528,-0.00560014648884548,-0.00917081209753716,0.00167851802117985
4.71,3,0.922340566220079,0.0452691223893958,-0.00705486210720135,0.172709331542914,0.00423698639891761,-0.0087486393831192,0.0274157943459375,-0.155268003377382,0.021495203507594,-0.0122938729005809,0.228878648233487,-0.0587125258135726,0.423444318979461,-0.498647012746564,-0.00893683685822118,-0.010661132643615,0.00320444349497971
4.74,3,0.943545843887651,0.0673085726493118,-0.0118564409314249,0.17782626829839,0.0125990579953408,-0.0118360952584409,0.0379345072786645,-0.161636199021373,-0.000620543026011943,0.0280261645354574,0.259854935351624,-0.0851212093468022,0.437843969033886,-0.505503504542172,-0.0148218227688426,-0.0176498713136184,0.010345774712363
4.77,3,0.970549638355663,0.08684041871395,-0.0193995991902422,0.186335846023947,0.0285500656147954,-0.0176396984771264,0.0517288735618152,-0.134535762606688,0.0054628131962035,0.0949634286528113,0.308704896186204,0.0202897223832921,0.455046235541856,-0.515233822646769,-0.022227647735018,-0.0263374736777856,0.0285297199418114
4.8,3,0.997751803135268,0.0890937019969278,-0.0247505111850337,0.201233965066479,0.0516932686340932,-0.0307016205328532,0.053905860571103,-0.146702475051118,-0.0054017761772515,0.166641234575437,0.350072735780918,0.122531815546129,0.474883266701254,-0.52267016612242,-0.0257271034882656,-0.0422579627877641,0.0603656117435224
4.83,3,1.02461826431064,0.0885494552446058,-0.0270953499964395,0.221421959084852,0.0672526220486058,-0.0555182551550849,0.0511998860642313,-0.149754325998718,-0.010508540096235,0.149398276721498,0.369594409009064,0.150924202195298,0.496754865159052,-0.527609078239285,-0.0283059175389874,-0.0595823033336385,0.10493280841497
4.86,3,1.04713075146743,0.0745668914863531,-0.0285754977060254,0.240846990366324,0.0590838343455306,-0.0660929186885179,0.0503657134718874,-0.159438866339101,0.00247199926755577,0.0320291756950591,0.328648742128768,0.0522985524053672,0.517970315663116,-0.528956979074475,-0.043753369752088,-0.0674001281777398,0.145624154382967
4.89,3,1.03023367005422,-0.0620034384187343,-0.143752352468439,0.25780002238024,0.0527614164657531,-0.0705384482355215,0.0860520238858201,-0.0417594937996562,-0.0194606362091942,-0.076102989796645,0.126041444135868,-0.0269936216315195,0.541301716157516,-0.488738670003357,-0.141499069185461,-0.0705130161442915,0.193039745272174
4.92,3,1.00363678904589,-0.087191381572924,-0.0927915280617695,0.278069399090548,0.06579790643025,-0.0839208146407463,0.0428785058137761,-0.222306995859656,0.00822982472202724,-0.0443993448693299,0.1095360169276,-0.0776492609434289,0.56971444847967,-0.43366801965392,-0.0947243669952493,-0.0908637755465356,0.279620756655578
4.95,3,0.987950275175227,-0.0643787957396161,-0.121255124566383,0.283974730674154,-0.00266019674265776,-0.0956399222795292,0.0633869441816462,-0.148248746197902,0.00584938098289946,0.0156916002889086,0.0148523412783186,0.0393841364787744,0.563361512090416,-0.424359874263741,-0.134108503474024,-0.098142440056561,0.308140303760898
4.98,3,0.923510442416659,-0.225959044160283,-0.211188085573901,0.280638040304778,-0.0125227617216508,-0.109948016805526,0.0918301950132756,-0.065726696574806,0.000233975239315978,0.00211594999033581,-0.214982553585416,0.0299488306324452,0.557715587837357,-0.365540533667002,-0.208085370443841,-0.108656066571042,0.331726025167597
5.01,3,0.864925077059236,-0.203070162053285,-0.17713960183518,0.28085166987111,-0.000732444227423933,-0.109347819452498,0.0226549068676819,-0.235938596758934,0.00532039348531551,0.0488703065075635,-0.152724794254382,0.00428276416313161,0.537339396343883,-0.327351705476038,-0.17098503575752,-0.114006978565834,0.419171727652821
5.04,3,0.832626321197139,-0.125970234280424,-0.193467004404838,0.276172165084791,-0.0250862147892697,-0.114658040101321,0.0666422518590859,-0.130792158777632,-0.00167851802117985,0.0587684764142786,-0.139835810419019,0.0747601753797011,0.512690613523769,-0.319691559597563,-0.208329518519649,-0.115319274473301,0.451826532792138
5.07,3,0.762647378968678,-0.244453260902738,-0.237891781365398,0.267454044211147,-0.0345571255633208,-0.118635619169693,0.0711182999155655,-0.125420901109856,0.00271614734336375,0.0280159916989654,-0.318013041576383,-0.0118411816766869,0.498784346039206,-0.263608712017172,-0.266436760561947,-0.122470778527177,0.473789686778364
5.1,3,0.680064292326629,-0.290566728720969,-0.240658792891222,0.255226294747765,-0.0462558875291198,-0.117821792250333,0.0412101606290882,-0.179092786441644,0.00182093773206783,0.086581011383404,-0.347239600817896,0.00915555284279916,0.47504094566688,-0.204789371420433,-0.228929512415947,-0.118513545131789,0.533738212225715
5.13,3,0.621387371440779,-0.212551245663828,-0.210404777164017,0.238990447706534,-0.0589515874711346,-0.11327453433841,0.0238349559007538,-0.195735546942554,0.000925728120771915,0.0642618081199581,-0.257769503870764,-0.0010376293221839,0.449527471744947,-0.171625924456516,-0.211249122592853,-0.11154515213477,0.576260668762271
5.16,3,0.566036968087812,-0.205745618050681,-0.239967040009766,0.221391440575376,-0.0627562283191422,-0.108523819696646,0.0948413546149073,-0.0888393810846278,-0.00908434298735517,0.0223904131188899,-0.408368175298318,0.043997517827896,0.420300912503433,-0.145502080345063,-0.263608712017172,-0.109591967528306,0.587918739382102
5.19,3,0.473250526444288,-0.318308053834651,-0.240791039765618,0.202683594266589,-0.0664184494562619,-0.102501500493383,0.0311593981749931,-0.163711457665741,0.00458794925789158,0.0480157882422356,-0.531235694448683,-0.0209356975005341,0.38975188451796,-0.0832646666870123,-0.23525701671397,-0.10488194423251,0.64917956073692
5.22,3,0.394512771996216,-0.275704214606159,-0.201310261340169,0.176966663614816,-0.0965198726360871,-0.0892259488713238,-0.00021362956633198,-0.189265622933643,0.00178024638609984,0.0879339986368399,-0.496485284992014,0.00156661681976786,0.357951597643971,-0.0363373719494207,-0.216386405021312,-0.0929288613544114,0.705720185959451
5.25,3,0.301278725547044,-0.330393383587146,-0.211116875718457,0.141972106082339,-0.124912259285257,-0.0797448652607807,0.0885748873358359,-0.128228603981648,-0.0053814305042675,0.0202032532731101,-0.782575965656504,-0.00618508458713543,0.321217485071362,0.0200608335622222,-0.223690501622567,-0.0775983967609689,0.714896084475234
5.28,3,0.186925870540483,-0.394665364543596,-0.132023071993164,0.104007080294198,-0.132012899156672,-0.0587074393953266,0.0148014770958586,-0.170547603788364,0.00629698578854742,0.043682159896644,-0.935717846207058,-0.0168360443942585,0.26130965096998,0.0744753359579251,-0.104668314666178,-0.0570187485376548,0.736788028606016
5.31,3,0.100324513484095,-0.298888108971424,-0.00925728120771915,0.0603554389070304,-0.146875413271482,-0.0406099632760603,-0.043997517827896,-0.17713960183518,-0.0191757967874182,0.0384634947762485,-0.680532242805261,-0.0246894741660817,0.209489221879737,0.109225745414594,0.00885036774803919,-0.0283110039572334,0.702892137414675
5.34,3,0.0684835352641377,-0.110344757428714,0.0257983133437096,0.0223802402823979,-0.115349792982777,-0.0210475987019461,-0.021251055431786,-0.153904843287454,-0.0160832544938505,-0.0384838404492325,-0.304269539475692,0.00121056754254789,0.156509089429406,0.0881272825301879,0.0304574724570452,-0.00498468988107954,0.613330484939116
5.37,1,0.0680562761314737,0.00972523168635111,0.0192063152968942,0.0143335266172267,0.00626646727907142,-0.0021362956633198,0.00377412233853165,-0.145034129866431,-0.00464898627684357,-0.0468662577186397,-0.0118106631672109,0.0336415702790409,0.136763613798435,0.0688192388683737,0.0116885891293069,-0.00684631895911537,0.561988179163996
5.4,1,0.06579790643025,0.010478021586759,0.00628681295205542,0.0302540157272052,0.0606606240017904,-0.0145980203660187,0.0119530828780989,-0.159967853836685,-0.0065614795373394,-0.0709148431857255,0.0422376171147801,0.109571621855322,0.138482823165583,0.0727968179367453,0.00485244300668355,-0.0466526281523077,0.570472324798324
5.43,1,0.0602333648691265,-0.00263476465142776,0.00550350454217149,0.032105471968749,-0.00900296029541917,-0.0348012736391288,-0.0208034506261381,-0.166071555731885,0.00279753003529974,-0.0513728242845953,-0.086581011383404,0.0295622628457493,0.117079175186417,0.0569577115187028,0.00781273842585528,-0.02203436384167,0.64714499343852
5.46,1,0.0446078880174159,-0.0375581123284605,0.0186468092898343,0.0261441897844376,-0.0097964415417951,-0.0126855271055228,0.0171208838160344,-0.162612791324605,0.00344859157078768,-0.0141605883968627,-0.112592954293446,0.0192368338063702,0.100527970213935,0.0560218105614388,0.0299895219784132,-0.0054322946867275,0.752922147282327
5.49,1,0.0282601397747734,-0.0406506546220283,0.042970061342204,0.0295622628457493,0.0159204891099785,-0.0121972309539069,-0.0273547573269855,-0.167821283608509,-0.0021668141727958,-0.00662251655629139,-0.0425021108635721,0.0561337117628508,0.0911893063142796,0.0629698578854742,0.0441094190293079,-0.0315764844711651,0.801853490808842
5.52,1,0.0199591051973022,-0.0160730816573585,0.0358490757978047,0.0265002390616576,-0.0132043417666148,-0.0167953530482905,-0.0151473535365866,-0.164036988433485,-0.00257372763247576,-0.00297046825566373,0.0520137129835912,-0.0191554511144342,0.0856654560991241,0.065757215084282,0.032980335907061,-0.00956246630247912,0.813023265277057
5.55,1,0.0149744153162226,-0.00786360260831528,0.0301522873622852,0.0286161890519934,0.0163884395886105,-0.0075787631865393,-0.00147506129133986,-0.156956694235054,-0.00147506129133986,-0.00516780093793552,0.109775078585162,-0.0124718975391909,0.0781884212775048,0.0633259071626942,0.0294198431348613,-0.0281787570828374,0.805698823002818
5.58,1,0.0127465641244748,-0.000305185094759972,0.0249844864243497,0.0313221635588651,0.00645975117241941,-0.0237637460453098,-0.00131229590746788,-0.158787804803613,-0.00167851802117985,0.00242113508509578,0.10951058483637,-0.00086469110181992,0.0697754854986216,0.0570899583930987,0.0235094251330098,-0.0289417198197373,0.801049836725974
5.61,1,0.011027354757327,0.000152592547379986,0.021993672495702,0.0316985585090691,0.00362152979115167,-0.0246182643106377,0.00251269061352377,-0.159642323068941,-0.000946073793755913,0.0126346629230628,0.104291919715974,0.00250251777703177,0.0679138564205857,0.0569678843551948,0.02137312946969,-0.0235399436424858,0.813674326812545
5.64,1,0.00955229346598712,0.000152592547379986,0.0201523890906501,0.0368154952645446,0.0206305124057741,-0.0310474969735811,0.00182093773206783,-0.162165186518957,-0.0011088391776279,0.0165817234819585,0.132338429924416,0.0032654805139317,0.0664693136387219,0.0569882300281788,0.0194199448632262,-0.0409863582262642,0.85318562374747
5.67,1,0.00823999755851924,0.000152592547379986,0.0182195501571703,0.043834752444024,0.02122053692231,-0.0449741101311279,-0.00623594876959543,-0.164565975931069,-0.00334686320586769,0.0151473535365866,0.149733980325734,-0.00712098554439934,0.0632343516342662,0.0550655639311909,0.0174057232378104,-0.0496841334269234,0.880133467614775
5.7,1,0.00727357809177933,0.000152592547379986,0.0162256742047385,0.0469781589200517,0.00718202256335134,-0.0449232459486679,0.00845362712485122,-0.161636199021373,-0.00346893724377168,0.00808740501113926,0.146193833226519,-0.00752789900407931,0.0619525742362743,0.054770551672923,0.0152999460839666,-0.0417188024536882,0.887600329599902
5.73,1,0.00638854131697541,0.000152592547379986,0.0143335266172267,0.054190699992879,0.0286161890519934,-0.0584327728100426,0.010773033845027,-0.157729829808445,-0.00505589973652353,-0.00043743196915596,0.157119459618926,0.00158696249275185,0.0722678304391614,0.0659708446506139,0.0131738232571388,-0.0616982533239743,0.886715292825098
5.76,1,0.00498468988107954,-0.0021769870092878,0.0121565396079389,0.0619017100538143,0.021210364085818,-0.0671102023377178,-0.000457777642139958,-0.164932198044781,-0.00375377666554765,-0.0165512049724825,0.143599759921059,-0.00569678843551948,0.0736208176925972,0.0686971648304697,0.011312194179103,-0.0685547451195817,0.880733664967803
5.79,1,0.00121056754254789,-0.011210465814183,0.0137333292641987,0.064739931435082,0.00806705933815526,-0.0602333648691265,0.0142317982523067,-0.164036988433485,-0.00387585070345164,-0.02167831456445,0.11327453433841,-0.0162256742047385,0.0802738527583646,0.0792362234361807,0.0162765383871985,-0.0602130191961425,0.875677765231279
5.82,1,-0.0032858261869157,-0.0128584653258868,0.0172633035269224,0.0683614612262337,0.00896226894945118,-0.0658182521032339,0.00820947904904324,-0.1696117028311,-0.00692770165105136,-0.0337026072979929,0.0827763705353964,-0.00199387595243182,0.0853195796583961,0.0888088625751518,0.0167648345388145,-0.0659199804681539,0.853704438408561
5.85,1,-0.00610370189519944,-0.00816878770307525,0.0159103162734865,0.0680257576219978,-0.0032756533504237,-0.0595721304971465,0.00678528194016338,-0.170588295134332,-0.0097760958688111,-0.0599586982838425,0.0790022481968647,0.0192571794793542,0.0896735536769717,0.0960112308114872,0.0145369833470667,-0.0597959328999705,0.716126997690766
5.88,1,-0.00880458998382519,-0.00855535548977121,0.0129398480178228,0.0645313882869961,-0.0131331319111708,-0.0487634917243975,0.00700908434298736,-0.183182266711427,-0.010793379518011,-0.054673909726249,0.0920336517431155,0.0774712363048189,0.0946073793755913,0.103600166834518,0.0127923418886888,-0.0485142572303435,0.474954476556698
5.91,1,-0.00857570116275521,-0.000640888698995941,0.00954212062949512,0.054205959247617,-0.0412610248115482,-0.0363526312041587,0.0153915016123946,-0.207190160832545,-0.0363678904588967,0.010920539974161,0.118884853663747,0.345383058158106,0.100899278745893,0.109703868729718,0.00685140537736137,-0.0246487828201137,0.200735496078372
5.94,3,-0.00690226955982136,0.00442518387401959,0.00521866512039552,0.0364085818048646,-0.0571509954120507,-0.00250760419527777,-0.00460829493087558,-0.245846939502141,-0.0186875006358023,-0.0284992014323354,0.0921353801080355,0.569633065787734,0.107643869340088,0.114764854884487,0.0032654805139317,0.00639871415346741,0.0454827519557278
5.97,3,-0.00747703482161931,-0.0032705669321777,0.00345876440727968,0.0241655730867438,-0.0263018687500636,0.00277718436231574,0.00961333048493912,-0.212134159367657,0.0149845881527146,-0.00558997365235349,0.0684581031729077,0.400687683746859,0.11192663350322,0.119637643564155,0.00522375153864152,0,0.010656046225369
6,3,-0.00714641763562934,-0.000574765261797947,0.00607318338572344,0.0187383648182623,-0.00861639250872321,-0.00272123376160975,0.00723288674581133,-0.192398856573178,0.0241401409955138,0.0689463993245236,0.0877508875799839,-0.00575273903622547,0.116748558000427,0.124139123711865,0.00495417137160354,-0.0100253303628651,0.00345367798903368
6.03,3,-0.00672424492121138,0.000152592547379986,0.00464389985859757,0.0174921923479924,0.000137333292641987,-0.00816878770307525,0.000783308409883928,-0.194819991658274,0.0253812270475377,0.0154627114678386,0.0919166641234575,-0.260963774529252,0.122196111941893,0.129139072847682,0.00404370250556963,-0.0156712546159246,0.00201422162541581
6.06,3,-0.00502029480880154,0.00510167750073753,0.00952177495651112,0.0143233537807347,-0.0076499730419833,-0.00636310922574541,-0.00316375214901171,-0.198034607989746,0.0086977752006592,0.00737530645669932,0.101713105665253,-0.326761680959502,0.127964110232856,0.133208207444482,0.0364391003143406,0.0320139164403211,0.00164799951170385
6.09,3,0.0318867559841711,0.127496159754224,0.124632506281727,0.0348623106580808,0.125690481276894,0.0934832809432254,0.154657633187862,-0.261329996642964,-0.00147506129133986,0.00614439324116743,0.775149795017345,-0.157750175481429,0.148528499201432,0.116748558000427,0.127511419008962,0.117704804630675,0.0010579749951679
6.12,3,0.145827611112807,0.382595294045839,0.0515661081779433,0.119118828903063,0.315769931129897,0.00922167627999715,0.0886155786818038,-0.304340749331136,-0.0153101189204586,0.0316324350718711,1.48908963286233,0.15006968392997,0.222993662322865,0.0772576067384869,0.0481073437706636,-0.00426750490839361,0.00144454278186387
6.15,3,0.275531276385795,0.445554979094821,0.022181869970804,0.195491398866746,0.241320027263202,-0.0178736737164424,0.00491348002563555,-0.250811283710237,-0.0129093295083468,0.00102745648569191,1.5269580167038,0.470514033427941,0.315897091586047,0.0404777164016643,0.0174667602567624,-0.0282652261930194,0.00152592547379986
6.18,3,0.398108869696137,0.425290688802759,0.0182551550848923,0.236894843389182,0.118991668446913,-0.0158136743268125,-0.0128686381623788,-0.216101565599536,-0.00416069012522762,0.0805332600889106,1.41892249315877,0.471795810825933,0.405062003438419,0.00707520778018535,0.0136214280627867,-0.00942004659159113,0.00164291309345785
6.21,3,0.513362020732241,0.401567634103417,0.0163019704784285,0.247728914253161,0.0240841903948078,-0.00179550564083783,-0.00851466414380322,-0.199112928657898,0.00786360260831528,0.0749178543453271,1.26473281044954,0.221961119418928,0.484481337931455,-0.0286568803979614,0.0121819716991689,0.0198115990681682,0.00167851802117985
6.24,3,0.623055716625467,0.381618701742607,0.0130212307097588,0.249743135878577,0.0128126875616728,0.0145268105105747,-0.021413820815658,-0.17581713309122,0.0162663655507065,0.00631224504328542,1.09995829137038,-0.000671407208471938,0.555426699626657,-0.0673543504135258,0.00744142989389732,0.0256813257240516,0.00167851802117985
6.27,3,0.727886796675517,0.360799991861731,0.0011240984323659,0.255394146549883,0.0282703126112654,0.0196030559200822,-0.0263985106967376,-0.157424644713686,0.0195827102470982,-0.0593686737673065,0.919680369477421,-0.0822168645283364,0.615777052115441,-0.111865596484268,-0.000920641702525915,0.0182755007578763,0.00167851802117985
6.3,3,0.82031718904182,0.313486129337443,-0.00116987619657989,0.264188563697216,0.0336924344615009,0.0164952543717765,-0.0637328206223741,-0.11052786848557,0.0145980203660187,-0.112252164270964,0.632826726076032,-0.0848414563432722,0.663014618366039,-0.157053336181728,-0.00124617247026989,0.0101677500737531,0.00167851802117985
6.33,3,0.907208471938231,0.287972655415509,-0.00712098554439934,0.266482538326161,0.00360118411816767,0.0147455264951526,-0.0816370128482925,-0.0929288613544114,0.0178533280434584,-0.148508153528448,0.200628681295206,-0.0776492609434289,0.686585080518001,-0.220409761853898,-0.00965402183090711,0.0183314513585823,0.00167851802117985
6.36,3,0.980717388429416,0.24433627328308,-0.0143131809442427,0.26570940275277,0.000152592547379986,0.0182551550848923,-0.0788903469954527,-0.0854823450422681,0.021739351583402,-0.216483046967986,-0.19940285449792,-0.0686768191574857,0.686457920061851,-0.294035665964741,-0.0159916989654225,0.021225623340556,0.00163782667521185
6.39,3,1.03232927437157,0.173258664713482,-0.010752688172043,0.26507360047202,0.000152592547379986,0.0205898210598061,-0.0576698100731427,-0.0880255541652679,0.0156559953611866,-0.284508804589984,-0.62800988799707,-0.111463769442834,0.660379853714611,-0.371705272581154,-0.00778730633462528,0.021515549180578,0.00148014770958586
6.42,3,1.06390067242449,0.105736462497838,0.000752789900407931,0.264636168502864,0.000152592547379986,0.021581672617776,-0.0260729799289936,-0.08737449262978,-0.00293994974618773,-0.336848048341319,-0.992899360128585,-0.128559221167638,0.610812707907346,-0.452864162114322,0.00418612221645762,0.022064882351146,0.00152592547379986
6.45,3,1.07950580360322,0.0570238349559008,0.00118513545131789,0.26431063773512,0.000152592547379986,0.0137892798649047,0.0147607857498906,-0.114271472314625,-0.0193995991902422,-0.322595904416028,-1.29354736981313,-0.043163345235552,0.540823592842392,-0.538443149103264,-0.0100558488723411,-0.0245674001281777,0.00167343160293385
6.48,3,1.06583859777622,-0.0367900631733146,-0.0165206864630065,0.25713878800826,-0.0379548529516485,-0.0261797947121596,0.0489618620359915,-0.128676208787296,-0.0347809279661448,-0.207037568285165,-1.3958708456679,0.0496230964079714,0.460336110517696,-0.60526342560096,-0.011210465814183,-0.0473240353607796,0.00167851802117985
6.51,3,1.03021332438124,-0.111133152256844,0.00642923266294341,0.228573463138727,-0.112114830978322,-0.0156458225246946,0.178136539811396,-0.12808618427076,-0.0285348063600574,-0.032237718843145,-1.38893297118035,0.0156916002889086,0.374563839635406,-0.655420595924762,0.0097557501958271,-0.00513219601021353,0.00167851802117985
6.54,3,0.997294025493128,-0.106265449995422,0.0123549099195329,0.201935890784427,-0.0799127170628986,0.0053865169225135,0.144505142368847,-0.168818221584724,-0.0304269539475692,-0.0408337656788842,-1.26628925443281,0.151707510605182,0.295134332305877,-0.701879940183721,0.0128737245806248,0.00446078880174159,0.00167851802117985
6.57,3,0.960849838760542,-0.118711915443383,0.0158899706005025,0.194611448510188,-0.0147506129133986,-0.00403352966907763,0.131280454929248,-0.139723909217607,-0.0241197953225298,0.0969064404227831,-1.17785170038962,0.00855026907152521,0.222184921821752,-0.738471633045442,0.0184382661417483,-0.0147099215674306,0.00167851802117985
6.6,3,0.921582689901425,-0.12666198716188,0.0229600919624419,0.19454532507299,-0.00507115899126153,-0.0125125888851588,0.148452202927742,-0.141880550553911,-0.0186671549628183,0.109907325459558,-0.99961851863155,0.0313679413230791,0.156895657216102,-0.764453057446008,0.0246538692383597,-0.02137312946969,0.00167851802117985
6.63,3,0.885423342590615,-0.119444359670807,0.0259153009633676,0.19070507929726,-0.0195572781558682,-0.0156865138706626,0.149591560614846,-0.144830673136591,-0.00623594876959543,0.150674967701244,-0.758593503626616,0.0169326863409324,0.10437330240791,-0.780821151361634,0.0269834487950275,-0.0141300698873867,0.00167851802117985
6.66,3,0.854909919532863,-0.100436414685507,0.0266782637002675,0.181997131260109,-0.0331888790551469,-0.0100355031993571,0.131382183294168,-0.130771813104648,0.00696839299701936,0.177449873348186,-0.514338613035473,-0.00617999816888943,0.0666269926043479,-0.788059124525691,0.0269376710308135,-0.00398775190486363,0.00167851802117985
6.69,3,0.834762616860459,-0.0657216101565599,0.0234026103498438,0.176875108086388,-0.0126295765048168,-0.00223293760999379,0.132643615019176,-0.124749493901385,0.0159204891099785,0.156865138706626,-0.260760317799412,-0.00692261523280536,0.043911048717714,-0.790597247230445,0.022253079826248,-0.00667846715699739,0.00167851802117985
6.72,3,0.82354706462803,-0.0355642363760287,0.0188960437838883,0.176595355082858,-0.00262459181493576,-0.00645975117241941,0.12767927081108,-0.110690633869442,0.0152490819015066,0.128457492802718,-0.0292469049144973,-0.0317392498550371,0.0473952452162236,-0.775912757754245,0.0172327850174464,-0.0126092308318328,0.00167851802117985
6.75,3,0.818277535325175,-0.0167750073753065,0.0142775760165207,0.17505417035432,-0.00490839360738955,-0.00856044190801721,0.118015076143681,-0.109185054068626,0.0206406852422661,0.101555426699627,0.152338226467686,-0.0359151992350027,0.136839910072125,-0.681208736431979,0.0132348602760908,-0.00895209611295918,0.00167851802117985
6.78,3,0.814783165990173,-0.010625527715893,0.0123091321553189,0.174403108818832,-0.00585446740114546,-0.0097964415417951,-0.0795820998769087,-0.222164576148768,0.167170222073021,-0.145135858231351,0.131122775963622,-0.17701244137903,0.181630909146397,-0.632923368022706,0.0124159469384849,-0.0101880957467371,0.00167851802117985
6.81,3,0.814345734021017,-0.0010427157404299,0.0118869594409009,0.168665629037344,-0.022176783552558,-0.00386059144871364,0.0571204769025747,-0.214209418012024,-0.0573239336324147,0.0805180008341726,0.1990468052207,-0.00935900957263914,0.19029816583758,-0.623798333689383,0.011057873266803,-0.00169377727591784,0.00369782606484166
6.84,3,0.82133447269102,0.0178787601346884,0.00847397279783522,0.162531408632669,-0.0103254290393791,0.000640888698995941,0.0197047842850022,-0.151992350026958,0.0182805871761223,0.054150008646911,0.223934649698375,0.184835352641377,0.205013173823257,-0.616082237210201,0.00629189937030142,-0.000732444227423933,0.00352997426272368
6.87,3,0.82952360606708,0.02223782057151,0.00518814661091952,0.161595507675405,0.000152592547379986,-0.00286873989074374,0.0129500208543148,-0.164260790836309,-0.000783308409883928,0.0920896023438215,0.20087791578926,0.0946938484857733,0.218476922920418,-0.610812707907346,0.00411999877925962,-0.00446587521998759,0.0186671549628183
6.9,3,0.835637480798771,0.0150863165176346,0.00460829493087558,0.160756248664815,-0.00116987619657989,-0.00386567786695964,0.0160018718019145,-0.161575162002421,-0.00265511032441176,0.0661030915250099,0.195923744417656,0.154586423332418,0.230190944140955,-0.605192215745516,0.00462864060385957,-0.00411999877925962,0.0359050263985107
6.93,3,0.839050467441837,0.00320444349497971,0.00576799829096347,0.159911903235979,0.00121565396079389,-0.00117496261482589,0.00678528194016338,-0.159988199509669,-0.000315357931251971,0.0585039826654866,0.195226905117954,0.0885850601723279,0.224336476739809,-0.614474929044465,0.00712607196264534,-0.00343333231604968,0.0503199357076734
6.96,3,0.845967996256396,0.0128126875616728,0.00621560309661143,0.158874273913795,-0.00224311044648579,-0.000595110934781945,0.0131738232571388,-0.159845779798781,-0.00279753003529974,0.0290841395306253,0.211864579200618,0.0418917406740521,0.225053661712495,-0.620705791395815,0.00467950478631957,-0.00162765383871985,0.0718253120517594
6.99,3,0.857722708822901,0.0296589047924233,0.00197861669769382,0.159260841700491,-0.00178024638609984,-0.00156153040152186,0.0183212785220903,-0.167394024475845,-0.0010884935046439,0.000935900957263914,0.267810093488367,-0.000920641702525915,0.238786990976694,-0.618671224097415,0.00075787631865393,-0.00292469049144973,0.114220608132165
7.02,3,0.874640135909096,0.0474359365621916,-0.00268054241564175,0.161046174504837,0.00464898627684357,-0.00247199926755577,0.00619525742362743,-0.153050325022126,0.00562557858007548,-0.011073132521541,0.310871710358999,-0.0223141168451999,0.256635232601906,-0.617745495976643,-0.00734478794722332,-0.00641397340820541,0.145084994048891
7.05,3,0.89015879797764,0.043977172154912,-0.0278227078056174,0.162821334472691,0.000152592547379986,-0.00423189998067161,0.0291248308765933,-0.156570126448358,0.00161748100222785,0.0205847346415601,0.331369975890378,0.010513626514481,0.275897498499507,-0.614032410657063,-0.0497299111911374,-0.00633259071626942,0.176310515661082
7.08,3,0.892579933062736,-0.00249234494053977,-0.097491378521073,0.167806024353771,0.0142114525793227,-0.00696330657877336,0.053966897590055,-0.160293384604429,0.00611387473169144,0.0336059653513189,0.263756218146306,0.0348623106580808,0.292733542893765,-0.599607328511409,-0.0992614520706809,-0.0151931313008006,0.24278491571805
7.11,3,0.892768130537838,-0.0102033550014751,-0.150797041739148,0.177729626351716,0.0289569790744753,-0.0147556993316446,0.0448520360932239,-0.149856054363638,1.01728364919991e-05,0.043214209418012,0.183289081494593,0.0445519374167099,0.307112847275206,-0.585421308023316,-0.168528295744702,-0.0290790531123793,0.315042573320719
7.14,3,0.859563992227953,-0.1254921109653,-0.218832972197638,0.187454858038067,0.0227515488143559,-0.0287280902534054,0.0551672922961109,-0.160354421623381,0.00114953052359589,0.0242266101056958,-0.075752026937671,0.0256304615415916,0.30647195857621,-0.552888576921903,-0.22067425560269,-0.0464389985859757,0.396399833165481
7.17,3,0.803781243324076,-0.203756828516495,-0.238898892178106,0.184947253842789,-0.0280363373719494,-0.0391298155664744,0.043794061098056,-0.138299712108727,0.00279753003529974,0.0904059979043957,-0.32489496546322,0.0629393393759982,0.294152653584399,-0.509399700918607,-0.255094047873369,-0.054653564053265,0.510488194423251
7.2,3,0.725124871567939,-0.278837448245694,-0.240348521378216,0.162190618610187,-0.0998158716594948,-0.0404777164016643,0.0391145563117364,-0.162205877864925,0.0043234555090996,0.0789462975961587,-0.595360169275999,0.0352234463535468,0.264625995666372,-0.460285246335236,-0.266365550706504,-0.0498723309020254,0.581708222703737
7.23,3,0.638930427971231,-0.310037537766655,-0.239244768618834,0.122379222998749,-0.145792006185085,-0.043310851364686,0.0319935707673371,-0.162104149500005,-0.00340790022481969,0.0782240262052268,-0.780322682373526,0.0599637847020885,0.217307046723838,-0.421389406008077,-0.274208807641835,-0.0383922849208045,0.642745241655731
7.26,3,0.534663940346487,-0.366740928373058,-0.204331593778293,0.0795312356944487,-0.15024770856858,-0.0333567308572649,0.0129296751813308,-0.174637084058148,-0.00121056754254789,0.0230516474908699,-0.914812667216,0.0352641376995148,0.160120446384065,-0.37430443230486,-0.274208807641835,-0.021439252906888,0.683044933418785
7.29,3,0.413296914578692,-0.422991627755567,-0.147887610502436,0.0338653726818649,-0.158106224758649,-0.0156966867071546,-0.0021668141727958,-0.154739015879798,0.00812809635710725,-0.0246640420748517,-1.02080853704438,-0.00497451704458754,0.0917386394848476,-0.321370077618742,-0.268583229061759,-0.00266019674265776,0.682719402651041
7.32,3,0.276492609434289,-0.474038921272418,-0.098101748710593,-0.010925626392407,-0.140018921475875,0.00837733085116123,0.0166325876644185,-0.150079856766462,0.00257372763247576,-0.0443637399416079,-1.07674387849564,-0.021535894853562,0.0280465102084414,-0.248237556077761,-0.180776390881069,0.0192673523158462,0.627465641244748
7.35,3,0.12999359111301,-0.505732393363241,-0.0409609261350342,-0.0522782067323832,-0.131351664784692,0.0226447340311899,-0.00257372763247576,-0.187739697459843,-0.00991851557969909,-0.0591652170374666,-1.13278603473006,0.0165105136265145,-0.0383973713390505,-0.168340098269601,0.0151219214453566,0.0442823572496719,0.537944680115157
7.38,3,0.0286568803979614,-0.344264046143986,0.13202815841141,-0.0823491114027324,-0.0726798303170873,0.0472375662505976,-0.0120548112430189,-0.182938118635619,-0.0123193049918109,-0.123828852198859,-0.748685160883409,-0.0488957385987935,-0.0995768100019328,-0.128126875616728,0.149596647033092,0.0616372163050223,0.459751172419406
7.41,1,0.0156203904334646,-0.0377513962218085,0.126901048819442,-0.0773847671946369,0.0508590960417493,0.0481988992990916,-0.181452884507787,-0.0956551815342672,0.0302438428907132,-0.107206437370932,0.231981363363547,0.269453006581825,-0.10742515335551,-0.122959074678793,0.128131962034974,0.0501724295785394,0.438617104607278
7.44,1,0.0346842860194708,0.0830764692119104,0.0621255124566383,-0.0516017131056653,0.0993886125268309,0.0308491266619872,-0.098198390657267,-0.141493982767215,-0.0124006876837469,-0.0523951943520412,0.538580482395906,0.0827967162083804,-0.0816929634489985,-0.116270434685303,0.0371105075228126,-0.0103305154576251,0.422111677399009
7.47,1,0.0417849258908862,0.0384024577572965,-0.0010884935046439,-0.043148085980814,0.00389619637643564,-0.00240587583035778,-0.0266223130995615,-0.113559373760186,-0.00076296273689993,-0.0256355479598376,0.275215918454543,-0.0804620502334666,-0.0560625019074068,-0.097786390779341,0.00752281258583331,0.010803552354503,0.445265053254799
7.5,1,0.0383159886471145,0.00312814722128971,0.0268766340118615,-0.0630258084861802,-0.0617135125787123,0.0636616107669301,-0.00338755455183569,-0.185542364777571,0.0230821660003459,0.0266273995178075,0.236594744712668,0.0789056062501907,-0.0516271451968952,-0.0898617511520737,0.0305134230577512,0.0904619485051017,0.599236019979451
7.53,1,0.0417849258908862,0.0209713024282561,0.021825820693584,-0.0609149449140904,0.0246030050558997,0.0394807784254484,-0.0244046347443058,-0.179845576342051,0.00725323241879533,0.0993936989450769,0.313338623208309,0.054216132084109,-0.0346486810917488,-0.076367483545437,0.0167597481205685,0.0246335235653757,0.818374177271849
7.56,1,0.0453149001536098,0.0184331797235023,0.0102237006744591,-0.0588905504521826,0.00780765200760928,0.0315256202887051,-0.00747703482161931,-0.172602516759748,-0.00123091321553189,0.0908993804742576,0.248374889370403,0.0335398419141209,-0.0177821181880144,-0.0630410677409182,0.00924202195298115,0.0361593473108107,0.928896959339173
7.59,1,0.043921221554206,0.00173446862188584,0.0141198970508947,-0.0500300098676514,0.0372071494694866,0.0239875484481338,-0.00743634347565132,-0.161371705272581,-0.00346893724377168,0.0820846176539405,0.161229285561693,0.0191198461867122,-0.00681580044963937,-0.0506658121484013,0.0160323903113905,0.0132501195308288,0.946628213344727
7.62,1,0.0424207281716361,0.000167851802117985,0.0150151066621906,-0.0401827041433963,0.0259661651458276,0.00234992522965178,-0.0252591530096337,-0.15713980529191,-0.00387585070345164,0.0591906491286966,0.147206030457472,0.0170547603788364,-0.0132043417666148,-0.0555436872463149,0.0142979216895047,0.00790938037252927,0.929380169072543
7.65,1,0.0386466058331044,-0.00752789900407931,0.0142368846705527,-0.0379192480239265,0.00280261645354574,0.0129907122002828,-0.0124006876837469,-0.156142867315694,-0.00381481368449965,0.0339772738832769,0.132267220068972,0.0121361939349549,-0.0174718466750084,-0.0560472426526688,0.0156916002889086,0.0264035971149836,0.917386394848476
7.68,1,0.0315052746157211,-0.0188807845291503,0.0210628579566841,-0.0302082379629912,0.0318664103111871,0.0131789096753848,-0.0139876501764987,-0.157261879329814,-0.00253303628650777,0.0262815230770796,0.133442182683798,0.00713624479913734,-0.0169275999226864,-0.0483769239377016,0.0226701661224199,0.00448622089297159,0.917035431989502
7.71,1,0.0254168319752597,-0.0161188594215725,0.0229041413617359,-0.0208848333180741,0.022181869970804,-0.00252794986826177,-0.0200506607257302,-0.160049236528621,-0.000579851680043947,0.0310271513005971,0.159108249153111,0.00498468988107954,-0.0203456729839981,-0.0456862086855678,0.0220597959329,-0.00253303628650777,0.915794345937478
7.74,1,0.0203456729839981,-0.0144657734916227,0.0204677470219021,-0.0169682912686544,0.0125329345581428,0.00580868963693147,-0.0130314035462508,-0.160944446139917,-0.00188197475101983,0.0312000895209611,0.188360240485855,0.00386567786695964,-0.021708833073926,-0.0419731233659881,0.0205287840408541,0.00752789900407931,0.928708761864071
7.77,1,0.0179652292448703,-0.00455743074841558,0.0177007354960784,-0.0064902696818954,0.0316171758171331,-0.00598162785729545,-0.0150252794986826,-0.161676890367341,-0.00363170262764367,0.0254015727205217,0.223395489364299,0.00281787570828374,-0.0161748100222785,-0.0340281380657369,0.0145776746930347,-0.0155746126692506,0.940478733685314
7.8,1,0.0148523412783186,-0.00743634347565132,0.0127872554704428,0.00317392498550371,0.0273751029999695,-0.0134891811883908,-0.00725323241879533,-0.160334075950397,-0.00444552954700359,0.0168258715577665,0.231442203029471,-0.00708029419843135,-0.0097964415417951,-0.0245979186376537,0.0130212307097588,-0.0199285866878262,0.947264015625477
7.83,1,0.011312194179103,-0.00944039226457513,0.0129093295083468,0.0135502182073428,0.0285551520330414,-0.0233670054221218,-0.00704977568895535,-0.160740989410077,-0.00420138147119561,0.00724305958230333,0.231279437645599,-0.00821965188553524,-0.00157678965625985,-0.0127567369609668,0.0122786136458429,-0.0316985585090691,0.944995473087761
7.86,1,0.00615456607765943,-0.0160832544938505,0.0136621194087547,0.0227464623961099,0.0248624123864457,-0.0313832005778171,0.000315357931251971,-0.160374767296365,-0.00285856705425174,0.00494399853511155,0.219814650919116,-0.00672424492121138,0.00850449130731122,0.00251269061352377,0.0146895758944466,-0.0366120385347046,0.937487919756666
7.89,1,-0.00356049277219967,-0.0315256202887051,0.0193690806807662,0.032675150812301,0.0288196457818333,-0.0421969257688121,0.00641905982645141,-0.159520249031037,-0.00306202378409172,0.00494399853511155,0.188828190964487,-0.00611387473169144,0.02223782057151,0.0260119429100416,0.0238451287372458,-0.0468764305551317,0.941180659403261
7.92,1,-0.0143945636361787,-0.0348012736391288,0.0299793491419212,0.0410168767357402,0.0205694753868221,-0.0521154413485112,-0.00806705933815526,-0.163141778822189,-0.00578834396394747,0.00123091321553189,0.215430158391064,-0.000579851680043947,0.0280058188624734,0.0426241849014761,0.0310678426465651,-0.0528377127394431,0.939461450036113
7.95,1,-0.022207302062034,-0.0254727825759657,0.0272428561255735,0.0508540096235033,0.0345164342173528,-0.065106153548794,0.0102440463474431,-0.159194718263293,-0.00334686320586769,-0.00899278745892717,0.267799920651875,0.000559506007059949,0.0395214697714164,0.0619424013997823,0.0265612760806096,-0.065767387920774,0.946063620919421
7.98,1,-0.0310373241370891,-0.0280770287179174,0.0308643859167252,0.0634378083641062,0.0342722861415449,-0.0829594815922524,-0.000172938220363984,-0.165298420158493,-0.00717184972685934,-0.0281584114098534,0.272153894670451,-0.011322367015595,0.0535701569668671,0.0848414563432722,0.032898953215125,-0.0838241726940723,0.944649596647033
8.01,1,-0.0390128279468164,-0.0254422640664897,0.0358897671437727,0.075930051576281,0.043193863745028,-0.0936816512548194,0.0123193049918109,-0.158991261533453,-0.00293994974618773,-0.0416069012522762,0.32161422569455,-0.00823999755851924,0.0718812626524654,0.111107720165614,0.0368765322834966,-0.0964384899441511,0.945198929817601
8.04,1,-0.043061616870632,-0.0136214280627867,0.0347198909471928,0.0887783440656758,0.0343231503240048,-0.107028412732322,0.00471002329579557,-0.169693085523036,-0.00704977568895535,-0.0564083783481348,0.363241472619811,0.00157678965625985,0.0893480229092278,0.132633442182684,0.0339671010467849,-0.105716116824854,0.941719819737337
8.07,1,-0.0465407269508957,-0.0100812809635711,0.0334889777316609,0.10381379640085,0.0503453677989034,-0.126112653991312,0.00564592425305948,-0.167495752840765,-0.00310271513005971,-0.0672526220486058,0.433098340810368,-0.0011291848506119,0.113844213181962,0.160568051189713,0.0336720887885169,-0.128818628498184,0.942279325744397
8.1,1,-0.0442721844131799,0.0064800968454034,0.0281075472273934,0.119174779503769,0.043956826481928,-0.138859218115787,0.011342712688579,-0.170344147058524,-0.0065614795373394,-0.103264463230283,0.485885189367351,-0.00319427065848771,0.141585538295643,0.186081525111647,0.0245674001281777,-0.140975168106123,0.934975229143142
8.13,1,-0.0415865555792922,0.00807723217464726,0.0229092277799819,0.127791172012492,0.0145573290200507,-0.131321146275216,0.00401827041433963,-0.191300190232042,-5.08641824599953e-05,-0.125583666493728,0.508784244310841,-0.032797224850205,0.17123935666982,0.21301919614246,0.0224514501378419,-0.131422874640136,0.908027385275836
8.16,2,-0.0315459659616891,0.0297962380850653,0.0130822677287108,0.131066825362916,0.00777204707988728,-0.124373098951181,-0.00558488723410749,-0.209082308420057,0.0121972309539069,-0.109591967528306,0.689016388439589,-0.0494806766970834,0.206437370932137,0.238176620787174,0.00674459059419538,-0.125522629474776,0.829187902462844
8.19,2,-0.0129907122002828,0.0475478377636036,-0.00154627114678386,0.132246874395988,-0.00525935646636352,-0.120914334543901,0.0454013692637918,-0.190364289274778,-0.00489313435265155,-0.0834986419263283,0.724977365438805,-0.0243334248888618,0.251441999572741,0.264595477156896,-0.00123091321553189,-0.124373098951181,0.659952594581947
8.22,2,0.0410880865911842,0.162307606229845,0.00265511032441176,0.120944853053377,-0.0554623045543789,-0.131270282092756,-0.0247912025310017,-0.227067883337911,0.0353506068096967,-0.0727764722637613,0.807702871791742,-0.130344553971984,0.295449690237129,0.254422640664897,0.0335194962411369,-0.144210130110579,0.452386038799198
8.25,2,0.135542873419396,0.305663218075096,0.0470290231025117,0.0848821476892402,-0.144789981790623,-0.143986327707755,-0.0376089765109205,-0.294127221493169,-0.00485244300668355,-0.0169479455956704,1.06749677012441,-0.112318287708162,0.35163426618244,0.216142256945504,0.0563269956561988,-0.154769534389274,0.357748140914131
8.28,2,0.280719422996714,0.486129337443159,0.0316680399995931,0.0241299681590218,-0.229824722027243,-0.131005788343964,-0.075899533066805,-0.323302916552222,-0.00619525742362743,-0.0266223130995615,1.39968057293415,-0.054719687490463,0.426547034109521,0.145878475295267,0.0362152979115167,-0.13459679962564,0.306934822636596
8.31,2,0.444888658304595,0.56022827845088,0.00811792352061525,-0.0569577115187028,-0.286467075614694,-0.0782799768059328,-0.0681274859869177,-0.3012075156916,-0.00985747856074709,0.0600197353027945,1.49615975422427,-0.00954212062949512,0.515467797886085,0.0706503494369335,0.00130212307097588,-0.0710776085695975,0.183406069114251
8.34,2,0.60424614195176,0.541591641997538,-0.0266528316090375,-0.147282326731162,-0.3090914639729,-0.0251269061352377,-0.0577511927650787,-0.171686961475468,-0.0194606362091942,0.0382600380464085,1.10614337595752,0.123559272031821,0.595375428530737,-0.0086774295276752,-0.032522558264921,0.0898159733878597,0.0478326771853796
8.37,2,0.732383190404981,0.438317005930764,-0.0367951495915606,-0.223792229987487,-0.202419100517797,0.101362142806279,-0.0175481429486984,-0.103854487746818,-0.00696839299701936,0.0992156743064669,0.502293974628946,0.230475783562731,0.641600797550381,-0.0905382447787917,-0.0422070986053041,0.176976836451308,0.011139255958739
8.4,2,0.816593930885749,0.291309345784885,-0.033122755617949,-0.199825027212338,0.17510503453678,0.0889512822860398,-0.0667032888780379,-0.0287789544358654,-0.000132246874395988,0.107079276914782,-0.122867519150365,0.111005991800694,0.653218176824244,-0.163172297331665,-0.0346486810917488,0.10437330240791,0.00355031993570767
8.43,2,0.860591448713645,0.156600644957834,-0.0709046703492335,-0.108106733400474,0.35178685872982,0.0344452243619088,-0.0467238380077517,-0.0469679860835597,0.00955229346598712,0.0126244900865708,-0.710582801802627,-0.0914843185725476,0.625802382478306,-0.234575436669006,-0.0955941445153152,-0.00668355357524339,0.00203456729839981
8.46,2,0.814844203009125,-0.15123956012655,-0.120609149449141,-0.00608335622221544,0.345957823419904,-0.0152185633920306,-0.283913693655202,0.138869390952279,-0.0021261228268278,0.0812809635710725,-1.93670461134678,-0.00572730694499547,0.54841761528367,-0.266162093976664,-0.125308999908444,-0.0903551337219357,0.00169886369416384
8.49,2,0.693472090823084,-0.409477014475946,-0.0587888220872626,0.0507115899126153,0.144494969532355,-0.0469985045930357,-0.149550869268878,-0.15602079327779,0.0132552059490748,-0.0192368338063702,-2.72735780917793,-0.210618406730349,0.402549312824895,-0.290688802758873,-0.0607521795302184,-0.06493321532843,0.00156661681976786
8.52,2,0.535976236253955,-0.535528631448307,-0.0145675018565427,0.0493280841497035,-0.0309559414451532,-0.0262255724763736,-0.0811080253507085,-0.265602587969604,0.0184636982329783,-0.043946653645436,-3.24633523565376,-0.163467309589933,0.221808526871548,-0.313893042797123,-0.0101626636555071,-0.0133162429680268,0.00153609831029186
8.55,2,0.375550604775129,-0.541662851852982,0.0179448835718863,0.0313018178858811,-0.0535905026398511,0.00285856705425174,0.105828018026266,-0.4807377341024,0.00613422040467544,-0.075858841720837,-3.05544195888139,-0.102053895687735,0.0258084861802016,-0.349569180374564,0.0195623645741142,0.00355031993570767,0.00167851802117985
8.58,2,0.223242896816919,-0.507054862107201,0.0394706055889564,0.0244351532537818,-0.0154525386313466,-0.00189214758751183,0.0808028402559486,-0.39341410565508,-0.0075787631865393,-0.0498367259743034,-2.59637236650695,0.0428683329772841,-0.140903958250679,-0.364065472375663,0.0423393454797001,-0.00374360382905566,0.00167851802117985
8.61,2,0.10411898149561,-0.402610349843847,0.043743196915596,0.021210364085818,-0.00597145502080345,-0.0021464684998118,0.120598976612649,-0.32151249732963,-0.0171412294890184,-0.0431023082166,-2.0087791578926,0.299254331085136,-0.277860855942462,-0.381878109073153,0.0475376649271116,-0.00486261584317555,0.00167851802117985
8.64,2,0.022003845332194,-0.279000213629566,0.0406913459679963,0.0199082410148422,-0.00550350454217149,-0.0043438011820836,0.0939461450036114,-0.239112521744438,-0.00574765261797947,-0.0396537166458123,-1.44886623737297,0.63345235552029,-0.379579048025961,-0.401470992156743,0.0427666046123641,-0.00602231920326345,0.00164799951170385
8.67,2,-0.0247250790938037,-0.163782667521185,0.032939644561093,0.0180211798455763,-0.00210069073559781,-0.00174972787662384,0.104098635822626,-0.189509771009451,-0.00357066560869167,-0.0372580136519466,-0.988168991159805,0.742194891201514,-0.449812311166723,-0.424888861761325,0.032171595405947,-0.00487787509791355,0.00152592547379986
8.7,2,-0.0513372193568733,-0.0914690593178096,0.0255033010854417,0.0176905626595864,0.000152592547379986,-0.00395214697714164,0.103549302652058,-0.169184443698436,0.000376394950203965,-0.010935799228899,-0.605329549038158,0.621026235745313,-0.496373383790602,-0.444812362030905,0.0244504125085198,-0.00605792413098544,0.00159204891099785
8.73,2,-0.0609912411877804,-0.0313984598325551,0.0188858709473963,0.0174565874202704,0.000152592547379986,-0.00475580106000956,0.11032441175573,-0.15144301685639,-0.00405896176030763,0.0663930173650319,-0.152597633798232,0.338663899655141,-0.517370118310088,-0.456155074719484,0.0170547603788364,-0.00564592425305948,0.00167851802117985
8.76,2,-0.0577613656015707,0.0101321451460311,0.0116428113650929,0.0168563900672424,-0.00117496261482589,-0.00518306019267352,0.0828780989003164,-0.141493982767215,0.00825017039501124,0.121621346680095,0.0775780510879849,0.0183314513585823,-0.513845230465611,-0.45582954395174,0.00815352844833725,-0.00564592425305948,0.00167851802117985
8.79,2,-0.0605843277281004,-0.00556962797936949,0.0098218736330251,0.0144301685639007,-0.00635293638925342,-0.00242113508509578,0.0729087191381573,-0.143284401989807,0.00949125644703513,0.143111463769443,0.253873307494329,-0.235745312865586,-0.40807316304005,-0.347265032909126,0.011261329996643,-0.00273649301634775,0.00167851802117985
8.82,2,-0.0610014140242724,-0.000274666585283975,0.010839157282225,0.0142267118340607,0.000152592547379986,-0.00308745587532172,0.0712810652994374,-0.15174820195115,0.00997955259865108,0.121656951607817,0.435417747530544,-0.280363373719494,-0.286512853378908,-0.225313069043041,0.010513626514481,-0.00473036896877956,0.00167851802117985
8.85,2,-0.0612811670278024,0.000152592547379986,0.010411898149561,0.0140639464501887,0.000152592547379986,-0.00358592486342967,-0.216040528580584,-0.19968260750145,0.0619627470727663,-0.0379853714611245,0.392122155420596,-0.177515996785384,-0.243481755017752,-0.181997131260109,0.010376293221839,-0.00473036896877956,0.00900296029541917
8.88,2,-0.0618813643808303,0.000152592547379986,0.0101982685832291,0.00809249142938526,-0.0301217688528092,-0.000610370189519944,-0.156000447604806,-0.214880825220496,0.0240791039765618,-0.0690328684347057,0.328959013641774,0.184479303364157,-0.225557217118849,-0.163472396008179,0.010574663533433,0.00198370311593982,0.145227413759779
8.91,2,-0.0619017100538143,0.000645975117241941,0.0171361430707724,-0.0291095716218553,-0.145420697653127,0.0395774203721224,-0.0851771599475082,-0.150059511093478,0.0143945636361787,-0.0504369233273314,0.377666554765465,0.409721162551754,-0.203777174189479,-0.141666920987579,0.0261899675486516,0.0666219061861019,0.307697785373496
8.94,2,-0.0554724773908709,0.0229600919624419,0.0307931760612812,-0.064699240089114,-0.0909451582384716,0.0792311370179347,-0.0285348063600574,-0.189570808028403,-0.0243639433983378,-0.0492416150395215,0.469995218766849,0.380804874823247,-0.179163996297088,-0.123472802921639,0.0252744122643717,0.0789056062501907,0.445972065390993
8.97,2,-0.0460168258715578,0.032736187831253,0.0143284401989807,-0.0862656534521521,-0.0666829432050539,0.065558844772688,-0.0605792413098544,-0.173192541276284,-0.0232449313842179,-0.0342366812138228,0.436969105095574,0.12559383933022,-0.151402325510422,-0.105166783654286,0.010920539974161,0.0663218075095879,0.585202592038738
9,2,-0.0447553941465499,0.00614947965941343,0.0179754020813623,-0.108055869218014,-0.0678273873104038,0.0744041261024812,-0.0485752942492955,-0.160069582201605,-0.00920641702525915,-0.0176854762413404,0.367381817072054,0.0599180069378745,-0.132226528723004,-0.08724733217363,0.0228227586697999,0.0754417554246651,0.678619749544766
9.03,2,-0.0471917884863837,-0.00637328206223741,0.0290943123671173,-0.125766777550584,-0.0517034414705852,0.0737937559129612,-0.0589515874711346,-0.156000447604806,-0.0123599963377789,-0.0160629088208665,0.390382600380464,0.0739361756238492,-0.118559322896003,-0.0711437320067955,0.0315357931251971,0.0743227434105452,0.743435977253538
9.06,2,-0.0469476404105757,0.00122074037903989,0.0286873989074374,-0.139011810663167,-0.0382396923734245,0.0710826949878434,-0.0516474908698792,-0.150446078880174,-0.0129703665272988,-0.00162256742047385,0.399395733512375,0.0470900601214637,-0.11276589251381,-0.065604622536902,0.0278430534786014,0.0713014109724214,0.806436353648488
9.09,2,-0.0484888251391135,-0.00271614734336375,0.032222459588407,-0.150685140537736,-0.0383515935748365,0.0732037313964253,-0.0556962797936949,-0.15744499038667,-0.0149235511337626,0.00342824589780368,0.397406943978189,0.032186854660685,-0.112923571479436,-0.0641804254280221,0.0315612252164271,0.0743532619200212,0.888190354116438
9.12,2,-0.0486719361959695,6.61234371979939e-05,0.0298877936134933,-0.158385977762179,-0.0154677978860846,0.0676595355082858,-0.032258064516129,-0.174453973001292,-0.0167343160293385,-0.0124312061932229,0.388485366374706,-0.0346079897457808,-0.098152612893053,-0.0492924792219815,0.0299081392864772,0.0685343994465977,0.981795709097568
9.15,2,-0.0490381583096815,4.57777642139958e-05,0.0299793491419212,-0.157851903846349,0.00800093590095726,0.054475539414655,-0.0291858678955453,-0.169693085523036,-0.0102237006744591,-0.00751263974934131,0.37163406272571,-0.0137892798649047,-0.0754163233334351,-0.0261594490391756,0.0299081392864772,0.054668823308003,1.0548671936196
9.18,2,-0.0526189967548652,-0.00884528132979319,0.0343994465976948,-0.147404400769066,0.043376974801884,0.0396537166458123,-0.0291248308765933,-0.162388988921781,-0.0134993540248828,-0.02226325266274,0.354324981434573,-0.00579343038219347,-0.0600197353027945,-0.00717184972685934,0.0356252733949807,0.032756533504237,1.07639291563667
9.21,2,-0.0551978108055869,-0.00778221991637928,0.0378175196590065,-0.129347615995768,0.0619830927457503,0.0248725852229377,-0.0373444827621286,-0.154840744244718,-0.0145573290200507,-0.0359050263985107,0.361512090416171,-0.00896735536769718,-0.0587074393953266,-0.0032756533504237,0.0382752973011465,0.0148421684418266,1.0652282275867
9.24,2,-0.0554673909726249,-0.000345876440727968,0.0347351502019308,-0.111005991800694,0.0593635873490605,0.0147811314228746,-0.0339874467197689,-0.15459659616891,-0.0134586626789148,-0.0405184077476323,0.369680878119246,-0.00863165176346121,-0.0585599332661926,-0.00284330779951374,0.0342722861415449,0.00846379996134322,1.04029460534481
9.27,2,-0.0555436872463149,0.000152592547379986,0.0338195949176509,-0.0949939471622872,0.0493942075869015,0.010452589495529,-0.0304879909665212,-0.156509089429406,-0.0124210333567309,-0.0473698131249936,0.364197719250059,-0.0157729829808445,-0.054480625832901,0.00123091321553189,0.0337229529709769,0.00698873867000336,1.02929776909696
9.3,2,-0.0556352427747429,0.000152592547379986,0.0338755455183569,-0.0797906430249947,0.0501469974873094,0.00734987436546932,-0.0251167332987457,-0.158889533168533,-0.010711996826075,-0.0460931221452478,0.373622852259896,-0.011159601631723,-0.0475936155278176,0.00809757784763126,0.0337229529709769,0.00395723339538764,1.03076774397005
9.33,2,-0.054475539414655,0.00366222113711966,0.0337229529709769,-0.0615558336130863,0.054658650471511,-0.00405387534206163,-0.0271716462701295,-0.161493779310485,-0.010671305480107,-0.0522171697134312,0.380158899706005,-0.0121819716991689,-0.0339314961190629,0.0206152531510361,0.032364879299295,-0.00700908434298736,1.03819900102746
9.36,2,-0.0527614164657531,0.00511693675547553,0.0281024608091474,-0.0461032949817398,0.0456353445031078,-0.00518306019267352,-0.0122582679728589,-0.161086865850805,-0.00945056510106713,-0.0609352905870744,0.384563737907041,-0.0153101189204586,-0.0166834518468785,0.0360983102918587,0.0289061148920153,-0.00555436872463149,1.04946541744235
9.39,2,-0.0507014170761233,0.00714641763562934,0.0304371267840612,-0.0225430056662699,0.0809401735485906,-0.0134586626789148,-0.0276802880947295,-0.160903754793949,-0.00808740501113926,-0.0699840286467076,0.437045401369264,-0.00478631956948556,-0.00465407269508957,0.0461439863277078,0.0288501642913093,-0.032085126295765,1.05907874792728
9.42,2,-0.043219295836258,0.0246284371471297,0.0203355001475061,0.00250760419527777,0.0722017070019634,-0.0336466566972869,-0.0272937203080335,-0.161086865850805,-0.010650959807123,-0.0788293099765007,0.498443556016724,-0.0192520930611082,0.02137312946969,0.064816227708772,0.0153965880306406,-0.0406404817855363,1.0607165746025
9.45,2,-0.0343689280882188,0.0277006337677135,0.010798465936257,0.021647796054974,0.0584175135553046,-0.0375784580014445,-0.00426241849014761,-0.164871161025829,-0.00796533097323527,-0.0960468357392092,0.538661865087842,-0.0244860174362417,0.0522019104586932,0.086799727367982,0.00751772616758731,-0.0381227047537665,1.05490788496556
9.48,2,-0.0276701152582375,0.0167495752840765,0.00737022003845332,0.0488296151615955,0.0922167627999715,-0.0676137577440718,-0.0122175766268909,-0.167597481205685,-0.00527970213934751,-0.0990732545955789,0.687414166692099,-0.0140588600319427,0.0889207637765638,0.116824854274117,0.00784834335357728,-0.0711844233527635,1.05396689759006
9.51,2,-0.0114546138899909,0.0387635934527624,0.00223293760999379,0.0793430382193467,0.0951109347819453,-0.0929797255368714,0.00493382569861955,-0.158340199997965,0.000966419466739911,-0.0996937976215908,0.712266406242053,-0.0464440850042217,0.1318501337728,0.143513290810877,-0.00581886247342346,-0.0970386872971791,1.02927742342397
9.54,2,0.0225226599932859,0.0951109347819453,-0.0450707520778019,0.108528906114892,0.0901160720643737,-0.118101545253863,0.00350962858973968,-0.161188594215725,-0.011240984323659,-0.116890977711315,0.800831120741396,-0.0233568325856299,0.177287107964314,0.154861089917702,-0.0585904517756686,-0.121651865189571,1.00348419649851
9.57,2,0.0459049246701458,0.0644754376862901,-0.0608284758039084,0.133696503596098,0.0702180038860235,-0.141295612455621,0.032502212591937,-0.169632048504084,0.00696839299701936,-0.129352702414014,0.680298267565945,-0.0801416058839686,0.221752576270842,0.175934120710878,-0.0603961302529984,-0.146107364116337,0.951384014404736
9.6,2,0.065253659677928,0.054729860326955,-0.0646890672526221,0.150034079002248,0.0419324320200201,-0.153152053387046,0.0269681895402895,-0.180964588356171,-0.010589922788171,-0.162678914761803,0.6511123996704,-0.0280973743909014,0.26052125614185,0.195348979155858,-0.0626901048819442,-0.15632597837255,0.890931933551032
9.63,2,0.0888597267576118,0.0690125227617216,-0.0396740623187963,0.157048249763482,0.00678528194016338,-0.160445977151809,0.00943021942808313,-0.219214453566088,0.0173243405458744,-0.182297229936623,0.642139957884457,-0.140578427482935,0.298623615222633,0.209835098320465,-0.032146163314717,-0.169530320139164,0.767927081108025
9.66,2,0.132084109012116,0.136519465722627,-0.0253608813745537,0.145380006307159,-0.0634886725465662,-0.170099998982716,-0.00151575263730786,-0.243588569800918,0.0075991088595233,-0.178482416252124,0.747103284808903,-0.148981190425326,0.340393281858781,0.208360037029125,-0.0124922432121749,-0.181402020325327,0.606270536413668
9.69,2,0.200170903653066,0.225145217240923,0.00198370311593982,0.106621499272642,-0.162938322092349,-0.169947406435336,-0.0149845881527146,-0.265439822585732,0.0316476943266091,-0.201900285856705,0.842788984852646,-0.218543046357616,0.387737662892544,0.187648141931415,0.0232144128747419,-0.180679748934395,0.486312448500015
9.72,2,0.297585985900449,0.327992594175034,0.0146488845484787,0.0417900123091322,-0.23485010325429,-0.142836797184159,-0.0278023621326334,-0.280577003285826,0.000722271390931934,-0.143213192134363,1.062939339376,-0.261126539913124,0.445092115034435,0.14757733898943,0.0236721905168818,-0.141850032044435,0.423861405275633
9.75,2,0.417828913235878,0.41204056927193,0.00552385021515549,-0.0336212246060569,-0.266579180272836,-0.0905484176152837,-0.0460320851262958,-0.257505010121972,0.0120344655700349,-0.1321044546851,1.15749585456913,-0.294991912594989,0.512578712322357,0.0948311817784153,0.00355031993570767,-0.0812402722251045,0.286568803979614
9.78,2,0.545294554480626,0.436129846084984,-0.010803552354503,-0.111148411511582,-0.261594490391756,-0.0399589017405723,0.0114240953805149,-0.175878170110172,0.00690735597806736,-0.136895860672831,1.07228817611215,-0.363302509638763,0.580980864894558,0.0357473474328847,-0.0116987619657989,-0.0266731772820215,0.0997446618040508
9.81,2,0.665232296721295,0.412966297392702,-0.0199489323608102,-0.19317199214657,-0.278196559546698,-0.0145064648375907,-0.00798567664621926,-0.113701793471074,-0.00253303628650777,-0.245114495274717,0.713441368856878,-0.425112664164149,0.635151219214453,-0.0298877936134933,-0.0272632017985575,0.11246070741905,0.021973326822718
9.84,2,0.756787825149286,0.320739361756239,-0.0302947070731732,-0.242042298654134,-0.0800500503555406,0.124749493901385,0.0135807367168188,-0.0970997243161311,0.0257881405072176,-0.40792057049267,0.314625487024547,-0.43961912900174,0.664703309223711,-0.0918505406862595,-0.032573422447381,0.167953530482905,0.00579851680043947
9.87,2,0.812687561672821,0.188777326782027,-0.0240994496495458,-0.17891984822128,0.278542435987426,0.0696941028066856,-0.0519730216376232,-0.0125837987406028,-0.00273649301634775,-0.469283120212409,-0.293944110436313,-0.560187587104912,0.664042074851731,-0.148421684418266,-0.0239875484481338,0.075848668884345,0.00244148075807978
9.9,3,0.832036296680604,0.0646076845606861,-0.033010854416537,-0.0634378083641062,0.385642058575193,0.00345876440727968,-0.0490839360738955,-0.0586464023763746,0.00125125888851588,-0.702464878282011,-0.791009247108371,-0.747876420382295,0.627867468286182,-0.203934853155105,-0.0603249203975545,-0.0241299681590218,0.00174972787662384
9.93,3,0.782596311329488,-0.161147902869757,-0.112074139632354,0.0181890316476943,0.235165461185542,-0.0534480829289631,-0.190404980620746,0.0417391481266722,-0.0156763410341706,-0.734641560106204,-1.55746126692506,-0.75884273812067,0.560136722922452,-0.222245958840704,-0.117801446577349,-0.076408174891405,0.00167851802117985
9.96,3,0.661488692892239,-0.404950102237007,-0.0529801324503311,0.032247891679637,0.00997955259865108,-0.0305490279854732,-0.141453291421247,-0.114474929044465,-0.0236518448438978,-0.718598996958322,-2.52649515264341,-1.14128035320088,0.43081962543616,-0.230445265053255,-0.054760378836431,-0.0201116977446821,0.00167851802117985
9.99,3,0.507471948403373,-0.51814325388348,-0.0134383170059308,0.0168767357402264,-0.0530920336517431,0.00198370311593982,-0.0517695649077832,-0.280251472518082,-0.0425326293730481,-0.759107231869462,-2.81921852270068,-1.4839218319244,0.269692068239387,-0.23754590492467,-0.00828068890448724,0.0075787631865393,0.00167851802117985
10.02,3,0.351156142867316,-0.52272103030488,0.0195115003916542,0.00805688650166326,-0.0163070568966745,0.00528987497583951,0.0486159855952635,-0.415916419975382,-0.0814742474644205,-0.671346171452986,-2.58531449324015,-1.79946287423322,0.102979623808507,-0.247922198146509,0.021210364085818,0.00365204830062766,0.00167851802117985
