time,Mode,Knee_Angle,Knee_Velocity,Knee_Current,Ankle_Angle,Ankle_Velocity,Ankle_Current,Acc_X,Acc_Y,Acc_Z,Gyro_X,Gyro_Z,Gyro_Y,Shank_Angle,Thigh_Angle,Knee_Ref_Torque,Ankle_Ref_Torque,Filtered_Vertical_Load
0,1,-0.0150863165176346,0.00752789900407931,0.00878933072908719,-0.0127669097974588,0.000152592547379986,0.011373231198055,-0.0443637399416079,-0.155288349050366,-0.0149438968067466,-0.0169988097781304,0.0473240353607796,-0.00426241849014761,-0.238166447950682,-0.222876674703207,0.00586972665588346,0.011291848506119,0.0487380596331675
0.03,1,-0.0152897732474746,0.00146488845484787,0.0064800968454034,-0.0149540696432386,-0.0076398002054913,0.0128482924893948,-0.0409049755343282,-0.155939410585854,-0.0136010823898027,-0.0183823155410423,0.0469374675740837,0.00157678965625985,-0.234300770083722,-0.218797367269916,0.00825017039501124,0.0185755994343903,0.0592059083834345
0.06,1,-0.0157678965625985,0.000162765383871985,0.00896226894945118,-0.0152287362285226,0.00011190120141199,0.0153202917569506,-0.0428988514867601,-0.15602079327779,-0.0132755516220588,-0.021535894853562,0.0472935168513037,0.0098269600512711,-0.231004771060315,-0.21505376344086,0.00951160212001912,0.0137638477736747,0.0667541530604979
0.09,1,-0.0161442915128025,0.000152592547379986,0.00973540452284311,-0.0150456251716666,0.000152592547379986,0.0139164403210547,-0.0428174687948241,-0.154108300017294,-0.0154728843043306,-0.0184535253964863,0.0488703065075635,0.00968454034038311,-0.229214351837723,-0.212856430758588,0.00991851557969909,0.0132755516220588,0.0787275816115807
0.12,1,-0.0163274025696585,0.000152592547379986,0.00966419466739911,-0.0149540696432386,0.000152592547379986,0.0132958972950428,-0.0422477899512721,-0.15541042308827,-0.0133976256599628,-0.0196132287565742,0.0538041322061831,0.00751772616758731,-0.227240821558275,-0.210689616585793,0.00991851557969909,0.0132755516220588,0.0882188380586159
0.15,1,-0.0163274025696585,0.000152592547379986,0.00999989827163508,-0.0151066621906186,0.000152592547379986,0.0132552059490748,-0.0420036418754641,-0.154677978860846,-0.0135196996978668,-0.0160832544938505,0.0605894141463464,0.00839259010589923,-0.224748476617735,-0.208207444481745,0.00991851557969909,0.0132755516220588,0.100548315886919
0.18,1,-0.0161137730033265,0.000152592547379986,0.0097964415417951,-0.0164494766075625,-0.00704977568895535,0.0141402427238787,-0.0413525803399762,-0.156102175969726,-0.0126244900865708,-0.0148523412783186,0.0644856105227821,0.010427157404299,-0.221778008362072,-0.205440432955921,0.00991851557969909,0.0189519943845943,0.111270485549486
0.21,1,-0.0157984150720745,0.000152592547379986,0.00989816990671509,-0.0175481429486984,-0.000478123315123956,0.0183111056855983,-0.0389110995818964,-0.156712546159246,-0.0132755516220588,-0.0159204891099785,0.0684123254086937,0.00965402183090711,-0.217271441796116,-0.201239051484725,0.00971505884985911,0.0167241431928465,0.118798384553565
0.24,1,-0.0154016744488866,0.000152592547379986,0.00963367615792311,-0.0175481429486984,0.000152592547379986,0.0164698222805465,-0.0395214697714164,-0.155695262510046,-0.0130720948922188,-0.0176600441501104,0.0697042756431776,0.00564592425305948,-0.213771986042868,-0.198177027700634,0.00930814539017914,0.0157170323801386,0.127414777062288
0.27,1,-0.0145268105105747,0.000152592547379986,0.00919624418876715,-0.0175481429486984,0.000152592547379986,0.0159408347829625,-0.0394400870794804,-0.15581733654795,-0.0118513545131789,-0.0178838465529344,0.0715659047212134,0.00500503555406354,-0.209896135339417,-0.195165868099002,0.00891140476699118,0.0157170323801386,0.138289539272235
0.3,1,-0.0134586626789148,0.000152592547379986,0.00853500981678721,-0.0178533280434584,-0.000478123315123956,0.0161341186763105,-0.0395214697714164,-0.155939410585854,-0.011200292977691,-0.0195420189011302,0.0788293099765007,0.00770083722444329,-0.206488235114597,-0.19281594286935,0.00827051606799524,0.0157170323801386,0.150863165176346
0.33,1,-0.0121972309539069,0.000152592547379986,0.00805688650166326,-0.0202948088015381,-0.00704977568895535,0.0194809818821782,-0.0375275938189845,-0.156549780775374,-0.0115258237454349,-0.0186162907803583,0.0879645171463159,0.00818913337605925,-0.202948088015381,-0.190537227495142,0.0076194545325073,0.0235094251330098,0.158970915860469
0.36,1,-0.010610268461155,0.000152592547379986,0.00710063987141535,-0.0202744631285541,0.000152592547379986,0.0197454756309702,-0.0381786553544725,-0.156509089429406,-0.0117292804752749,-0.0197047842850022,0.101351969969787,0.00684631895911537,-0.197932879624826,-0.187078463087863,0.0065614795373394,0.0181585131382183,0.174718466750084
0.39,1,-0.00849431847081922,0.000152592547379986,0.00612404756818344,-0.02218695638905,-0.0075991088595233,0.0207932777896461,-0.0354116438286487,-0.155532497126174,-0.011363058361563,-0.021240882595294,0.104129154332102,0.00301115960163172,-0.193517868587298,-0.184830266223131,0.0053916033407595,0.0249946592608417,0.187526067893511
0.42,1,-0.00568661559902748,0.000152592547379986,0.00400809757784763,-0.0227362895596179,7.12098554439934e-05,0.0225836970122379,-0.0287382630898974,-0.158909878841517,-0.011363058361563,-0.02198349965921,0.0920845159255755,0.00185145624154383,-0.184901476078575,-0.17897071240374,0.00369273964659566,0.0203558458204901,0.202805668304493
0.45,1,-0.00174972787662384,0.00319427065848771,-0.000345876440727968,-0.0227566352326019,0.000152592547379986,0.0207831049531541,-0.0285348063600574,-0.158747113457645,-0.010834070863979,-0.0241401409955138,0.0497146519363994,0.00226854253771579,-0.177627897986796,-0.175644194870856,-0.000467950478631957,0.0201422162541581,0.220709860530412
0.48,1,0.000620543026011943,0.00206508580787581,0.000315357931251971,-0.0250353506068097,-0.0076601458784753,0.0240892768130538,-0.0338246813358969,-0.157119459618926,-0.0100202439446191,-0.0273751029999695,0.0445671966714479,0.00165817234819585,-0.174718466750084,-0.175176244392224,-0.000895209611295918,0.0276294239122695,0.245521408734397
0.51,1,0.00162765383871985,-0.000732444227423933,0.00151575263730786,-0.0257576219977416,-0.00331634469639169,0.0249946592608417,-0.0319935707673371,-0.157119459618926,-0.0100202439446191,-0.0234789066235338,0.0392671488591164,-0.00319427065848771,-0.171961628060752,-0.173538417717012,0.000803654082867926,0.0231940672017579,0.271787672556739
0.54,1,0.00194301176997182,-0.00332651753288369,-0.000691752881455936,-0.0276497695852535,-0.00419120863470361,0.0273649301634775,-0.0294300159713533,-0.15683462019715,-0.0102643920204271,-0.0228074994150619,0.0259305602181056,-5.08641824599953e-05,-0.170283110039572,-0.172124393444624,-7.12098554439934e-05,0.0298267565945413,0.297189245277261
0.57,1,0.00276701152582375,-0.000264493748791976,0.000457777642139958,-0.0301421145257932,-0.00767031871496729,0.0292163864050213,-0.0288196457818333,-0.159235409609261,-0.00953194779300312,-0.0241910051779738,0.010783206681519,0.00302133243812372,-0.168034913174841,-0.170720542008728,-0.000793481246375927,0.032237718843145,0.328765729748426
0.6,1,0.00269580167037975,0.000152592547379986,0.000457777642139958,-0.032502212591937,-0.00768049155145929,0.032247891679637,-0.0255236467584257,-0.159642323068941,-0.010345774712363,-0.0251269061352377,-0.0139978230129907,0.00729392376476333,-0.165227210303049,-0.167841629281493,-0.00119022186956389,0.0343943601794488,0.358480585141555
0.63,1,0.00132246874395988,0.000152592547379986,0.000457777642139958,-0.032929471724601,-0.000498468988107954,0.0315764844711651,-0.0284127323221534,-0.158706422111677,-0.00908434298735517,-0.021291746777754,-0.0485956399222795,0.0172124393444624,-0.163518173772393,-0.164749086987925,-0.000457777642139958,0.0292469049144973,0.389528082115136
0.66,1,-0.0021464684998118,-0.00297046825566373,0.000742617063915932,-0.0352895697907448,-0.00704977568895535,0.0340383109022289,-0.043265073600472,-0.155044200974558,-0.00827051606799524,-0.0186875006358023,-0.00421155430768761,0.0116173792738629,-0.170364492731508,-0.167984048992381,0.00174972787662384,0.0369375693024486,0.41753390097761
0.69,1,-0.00675476343068738,-0.00516780093793552,0.00671407208471938,-0.0354625080111087,0.000152592547379986,0.033061718598997,-0.0373241370891446,-0.156183558661662,-0.00786360260831528,-0.0136417737357707,0.0457269000315358,0.00116987619657989,-0.173192541276284,-0.166224148279265,0.00730409660125533,0.0313221635588651,0.431094292021444
0.72,1,-0.00904365164138717,-0.000101728364919991,0.00604266487624744,-0.0376903592028565,-0.0076601458784753,0.0353709524826807,-0.0313425092318491,-0.157648447116509,-0.00888088625751518,-0.0129398480178228,0.0616982533239743,0.00901313313191117,-0.173467207861568,-0.164220099490341,0.00561540574358348,0.0388704082359284,0.444878485468103
0.75,1,-0.010711996826075,0.000152592547379986,0.00587989949237546,-0.0378429517502365,0.000132246874395988,0.0356049277219967,-0.0307728303882972,-0.158258817306029,-0.00818913337605925,-0.0154016744488866,0.0537430951872311,0.010793379518011,-0.168808048748232,-0.157882422355825,0.00637836848048341,0.0337636443169449,0.464674825281533
0.78,1,-0.0120649840795109,0.000152592547379986,0.00686666463209937,-0.0378429517502365,0.000152592547379986,0.0338348541723889,-0.0299183121229692,-0.157851903846349,-0.00884019491154719,-0.0131127862381868,0.0491653187658315,0.0097455773593351,-0.165623950926237,-0.15332499160741,0.00723288674581133,0.0337229529709769,0.485325683360291
0.81,1,-0.0131433047476628,0.000152592547379986,0.0076296273689993,-0.0378429517502365,0.000152592547379986,0.0336720887885169,-0.0295927813552253,-0.158747113457645,-0.00863673818170721,-0.0168869085767184,0.0468052206996877,0.00572730694499547,-0.162429680267749,-0.149082918790246,0.00796533097323527,0.0337229529709769,0.501571703238014
0.84,1,-0.0137129835912147,0.000366222113711966,0.00822982472202724,-0.0378429517502365,0.000152592547379986,0.0336619159520249,-0.0291044852036093,-0.157689138462477,-0.0076601458784753,-0.0141707612333547,0.0428276416313161,-0.00120039470605589,-0.159886471144749,-0.145949685150711,0.00839259010589923,0.0337229529709769,0.518539994506668
0.87,1,-0.0131738232571388,0.00407930743329162,0.00508641824599953,-0.0378531245867285,0.000152592547379986,0.0338043356629129,-0.0293079419334493,-0.157770521154413,-0.00688701030508337,-0.0156254768517106,0.0453403322448398,-0.00573747978148747,-0.15729239783929,-0.143884599342835,0.00514745526495153,0.0337229529709769,0.534257026886807
0.9,1,-0.0130517492192348,0.00387585070345164,0.00778221991637928,-0.0380158899706005,0.000152592547379986,0.0337432986439609,-0.0297148553931293,-0.157404299040702,-0.00778221991637928,-0.0144352549821467,0.0506708985666473,-0.00636819564399141,-0.15510523799351,-0.141839859207943,0.00701925717947935,0.0337229529709769,0.539902951139866
0.93,1,-0.0135095268613748,0.00097659230323191,0.00641905982645141,-0.0380769269895525,0.000152592547379986,0.0338755455183569,-0.0279244361705374,-0.158136743268125,-0.00664286222927539,-0.0116885891293069,0.0536515396588031,-0.0125431073946348,-0.152582374543494,-0.138808353933327,0.0075584175135553,0.0337229529709769,0.545965961689098
0.96,1,-0.0135095268613748,0.000152592547379986,0.00808740501113926,-0.0380667541530605,0.000152592547379986,0.0338145084994049,-0.0288603371278013,-0.158706422111677,-0.0064800968454034,-0.010671305480107,0.0556962797936949,-0.0197149571214942,-0.14996795556505,-0.136234626300851,0.00839259010589923,0.0337229529709769,0.551947589546393
0.99,1,-0.0130415763827428,0.000152592547379986,0.00823999755851924,-0.0381481368449965,0.000152592547379986,0.0337127801344849,-0.0285754977060254,-0.157973977884253,-0.00603249203975545,-0.00818913337605925,0.0694092633849096,-0.02137312946969,-0.147618030335398,-0.13434247871334,0.00796533097323527,0.0337229529709769,0.550869268878241
1.02,1,-0.0119429100416069,0.000152592547379986,0.00783308409883928,-0.0381277911720125,0.000152592547379986,0.0337839899899289,-0.0297555467390973,-0.157729829808445,-0.00607318338572344,-0.00458794925789158,0.0852788883124282,-0.021769870092878,-0.145156203904335,-0.132989491459904,0.00741599780266732,0.0337229529709769,0.552985218868577
1.05,1,-0.0100202439446191,0.000152592547379986,0.00682597328613137,-0.0379650257881405,0.000152592547379986,0.0338653726818649,-0.0279244361705374,-0.156671854813278,-0.00509659108249153,-0.00086469110181992,0.107771029796238,-0.021332438123722,-0.141738130843023,-0.131514430168564,0.00625629444257942,0.0337229529709769,0.554124576555681
1.08,1,-0.00553402305164749,0.00599180069378745,0.00362152979115167,-0.0377615690583005,0.000152592547379986,0.0337229529709769,-0.0159204891099785,-0.159967853836685,-0.00676493626717938,-3.05185094759972e-05,0.0899075289162877,-0.0152999460839666,-0.13485112053794,-0.129093295083468,0.00170903653065584,0.0336008789330729,0.552110354930265
1.11,1,-0.00135298725343588,0.00297046825566373,-0.00115970336008789,-0.0376903592028565,0.000152592547379986,0.0334279407127089,-0.0165308592994985,-0.160374767296365,-0.00635802280749942,-0.00617491175064343,0.043020925524664,-0.000447604805647959,-0.126692505671356,-0.12513606168808,-0.00043743196915596,0.0332651753288369,0.556443983275857
1.14,1,0.0010783206681519,0.000223802402823979,0.000152592547379986,-0.0376903592028565,0.000152592547379986,0.0334686320586769,-0.0242622150334178,-0.158136743268125,-0.00696839299701936,-0.00949125644703513,0.0372936185796686,-0.00854518265327921,-0.123701691742709,-0.124718975391909,-0.000152592547379986,0.0332651753288369,0.557288328704693
1.17,1,0.00312306080304371,0.000152592547379986,0.000152592547379986,-0.0376700135298725,0.000152592547379986,0.0332956938383129,-0.0205999938962981,-0.158340199997965,-0.00635802280749942,-0.0122074037903989,0.0352793969542528,-0.0139469588305307,-0.121524704733421,-0.124576555681021,-0.00122074037903989,0.0332651753288369,0.557634205145421
1.2,1,0.00473036896877956,0.000152592547379986,0.000132246874395988,-0.0376903592028565,0.000152592547379986,0.0333770765302489,-0.021251055431786,-0.159479557685069,-0.00534073915829951,-0.0146488845484787,0.0266731772820215,-0.010976490574867,-0.118879767245501,-0.123528753522345,-0.00228888821069979,0.0332651753288369,0.557288328704693
1.23,1,0.00579851680043947,0.000152592547379986,-0.00296029541917173,-0.0376293221839045,0.000152592547379986,0.0334279407127089,-0.0204779198583941,-0.158909878841517,-0.00505589973652353,-0.0142114525793227,0.0208441419721061,-0.0115868607643869,-0.116926582639037,-0.122664062420525,-0.00299081392864772,0.0332651753288369,0.559251686147649
1.26,1,0.0065309610278634,0.000152592547379986,-0.0032553076774397,-0.0375581123284605,0.000152592547379986,0.0334075950397249,-0.0224717958108259,-0.158055360576189,-0.00473036896877956,-0.0098066143782871,0.0226854253771579,-0.00793481246375927,-0.116051718700725,-0.122480951363669,-0.00344859157078768,0.0332651753288369,0.558397167882321
1.29,1,0.00683614612262337,0.000152592547379986,-0.00364187546413566,-0.0374258654540646,0.000152592547379986,0.0334177678762169,-0.0211289813938821,-0.159113335571357,-0.00468967762281157,-0.00558488723410749,0.0281482385733614,-0.00355031993570767,-0.115298928800317,-0.122002828048545,-0.00366222113711966,0.0332651753288369,0.554104230882697
1.32,1,0.00624612160608743,-0.0021769870092878,-0.00348928291675568,-0.0373851741080966,0.000152592547379986,0.0335194962411369,-0.021739351583402,-0.158665730765709,-0.00464898627684357,-0.000925728120771915,0.0289925840021973,0.00278735719880774,-0.113966287219866,-0.120131026134017,-0.00309254229356772,0.0332651753288369,0.558214056825465
1.35,1,0.00623594876959543,0.000386567786695964,-0.000661234371979939,-0.0373851741080966,0.000152592547379986,0.0334482863856929,-0.0209255246640421,-0.158096051922157,-0.00473036896877956,0.00119022186956389,0.0352590512812688,0.00159713532924385,-0.112379324727114,-0.118533890804773,-0.00287891272723574,0.0332651753288369,0.556932279427473
1.38,1,0.00459812209438358,-0.00598162785729545,-0.00076296273689993,-0.0365713471887366,0.00580868963693147,0.0332346568193609,-0.0195013275551622,-0.158828496149581,-0.00481175166071556,4.06913459679963e-05,0.032756533504237,0.000823999755851924,-0.110466831466618,-0.114983570869065,0.000508641824599953,0.0302743614001892,0.554918057802057
1.41,1,0.00483209733369956,-0.00032553076774397,0.000447604805647959,-0.0351573229163488,0.00232957955666779,0.0270495722322255,-0.0194199448632262,-0.158869187495549,-0.00550350454217149,-0.00021362956633198,0.0291756950590533,0.00115970336008789,-0.108218634601886,-0.112979522080142,-0.00198370311593982,0.0279447818435214,0.561428673156936
1.44,1,0.00499486271757154,0.000152592547379986,0.000457777642139958,-0.0353912981556647,0.000152592547379986,0.0296232998647013,-0.0185654265978983,-0.159764397106845,-0.00493382569861955,-0.0010884935046439,0.0279549546800134,0.0010681478316599,-0.10605182042909,-0.110975473291218,-0.00262459181493576,0.0312814722128971,0.578051087984863
1.47,1,0.00503555406353954,0.000152592547379986,0.000457777642139958,-0.0354625080111087,0.000152592547379986,0.0317494226915291,-0.0196234015930662,-0.159560940377005,-0.00428276416313161,-0.00280770287179174,0.0334177678762169,0.00065106153548794,-0.104159672841578,-0.109134189886166,-0.00274666585283975,0.0312814722128971,0.594897305215613
1.5,1,0.00506607257301553,0.000152592547379986,-0.000264493748791976,-0.0333363851842809,0.00794498530025127,0.0287484359263894,-0.0188502660196743,-0.158665730765709,-0.00468967762281157,-0.00593076367483545,0.0295520900092573,0.00162765383871985,-0.102745648569191,-0.10778120263273,-0.00274666585283975,0.0242825607064018,0.606362091942096
1.53,1,0.00526952930285552,0.000152592547379986,-0.00303150527461572,-0.0333465580207729,0.000193283893347982,0.0265409304076256,-0.0161646371857865,-0.159113335571357,-0.00407930743329162,-0.00146488845484787,0.0177719453515224,0.00296029541917173,-0.100151575263731,-0.10533972187465,-0.00274666585283975,0.0295520900092573,0.616789249346395
1.56,1,0.0054119490137435,0.000152592547379986,-0.00276701152582375,-0.0335703604235969,0.000152592547379986,0.0283008311207414,-0.0171819208349864,-0.158706422111677,-0.00493382569861955,-0.00127160456149988,0.0169784641051464,0.00141402427238787,-0.098259427676219,-0.10361033967101,-0.00274666585283975,0.0299081392864772,0.639596748761457
1.59,1,0.00558488723410749,0.000152592547379986,-0.00268562883388775,-0.0332550024923449,0.000783308409883928,0.0302845342366812,-0.0198675496688742,-0.158991261533453,-0.00420138147119561,0.00101728364919991,0.0264493748791976,0.00130212307097588,-0.097394736574399,-0.102898241116571,-0.00277718436231574,0.0299081392864772,0.668080690939055
1.62,1,0.00585955381939146,0.000152592547379986,-0.00285856705425174,-0.0310576698100731,0.00735496078371532,0.0258186590166936,-0.0195420189011302,-0.159438866339101,-0.00468967762281157,0.00248217210404777,0.0304778181300292,0.000722271390931934,-0.097862687053031,-0.103640858180486,-0.00320444349497971,0.022044536678162,0.696493423261208
1.65,1,0.00619525742362743,0.000152592547379986,-0.0032349620044557,-0.0310983611560411,0.000152592547379986,0.0252591530096337,-0.0142928352712587,-0.160212001912493,-0.00489313435265155,0.00247199926755577,0.0290332753481653,0.00160730816573585,-0.0951567125461592,-0.101250241604867,-0.00320444349497971,0.0274666585283975,0.719667144789982
1.68,1,0.00682597328613137,0.000152592547379986,-0.00320444349497971,-0.0293893246253853,0.00774152857041129,0.0266019674265776,-0.0171412294890184,-0.159601631722973,-0.00424207281716361,0.00420138147119561,0.0255439924314096,0.00128177739799188,-0.0920336517431155,-0.0987680695008189,-0.00360118411816767,0.0211696727398501,0.73421430097354
1.71,1,0.00749738049460331,0.000152592547379986,-0.00367239397361166,-0.0286467075614694,0.000396740623187963,0.0229804376354259,-0.0175481429486984,-0.159967853836685,-0.0033061718598997,0.00839259010589923,0.0223700674459059,-0.000559506007059949,-0.0920234789066235,-0.0994699952187668,-0.00396740623187963,0.0250048320973337,0.745078890346995
1.74,1,0.00894192327646718,0.00248217210404777,-0.0043234555090996,-0.0285144606870734,0.000152592547379986,0.0249743135878577,-0.0173446862188584,-0.159357483647165,-0.00513728242845953,0.0115665150914029,0.0263171280048016,-6.10370189519944e-05,-0.0904568620868557,-0.0992868841619109,-0.00509659108249153,0.0254829554124577,0.748873358358511
1.77,1,0.011251157160151,0.00621560309661143,-0.00837224443291523,-0.0262459181493576,0.00792463962726727,0.0226549068676819,-0.0175481429486984,-0.159154026917325,-0.00493382569861955,0.0124210333567309,0.0290637938576413,-0.00097659230323191,-0.0892259488713238,-0.100395723339539,-0.0101219723095391,0.0180059205908383,0.748781802830083
1.8,1,0.0116885891293069,0.000488296151615955,-0.00796533097323527,-0.0260933256019776,0.000172938220363984,0.0209356975005341,-0.0136824650817387,-0.159764397106845,-0.00310271513005971,0.0149744153162226,0.021403647979166,-0.00154627114678386,-0.08691671498764,-0.0985239214250109,-0.00687683746859137,0.0230109561449019,0.747449161249631
1.83,1,0.0120955025889869,0.000152592547379986,-0.00672424492121138,-0.0259407330545976,0.000152592547379986,0.0226345611946979,-0.0165308592994985,-0.159805088452813,-0.00241096224860378,0.0272021647796055,0.0237942645547858,-0.00403861608732363,-0.0851059500920642,-0.0971302428256071,-0.00676493626717938,0.0230414746543779,0.747642445142979
1.86,1,0.0126143172500788,0.000152592547379986,-0.00689718314157537,-0.0253812270475377,0.00362152979115167,0.0234789066235338,-0.0173853775648264,-0.159967853836685,-0.00399792474135563,0.0363271991129287,0.0270088808862575,0.000732444227423933,-0.0851364686015402,-0.097669403159683,-0.00717184972685934,0.0224209316283659,0.74133528651794
1.89,1,0.0132552059490748,0.000152592547379986,-0.00738547929319132,-0.0234687337870418,0.00451673940244758,0.0182093773206783,-0.0151066621906186,-0.159113335571357,-0.00525935646636352,0.0445570238349559,0.0268257698294015,0.00168869085767184,-0.0841191849523403,-0.097262489700003,-0.0075991088595233,0.0155746126692506,0.740735089164912
1.92,1,0.0162053285317545,0.00778221991637928,-0.00992868841619108,-0.0235195979695018,0.000152592547379986,0.0190537227495142,-0.0149845881527146,-0.160415458642333,-0.00591041800185146,0.0493992940051475,0.0251777703176977,0.00238044373912778,-0.0824406669311604,-0.0985646127709789,-0.0128076011434268,0.0210577715384381,0.739229509364096
1.95,1,0.0167546617023225,0.00122074037903989,-0.0119734285510829,-0.0236518448438978,0.000152592547379986,0.0205593025503301,-0.0136417737357707,-0.160822372102013,-0.00700908434298736,0.0527461572110152,0.0180873032827743,0.00639871415346741,-0.0800398775190486,-0.0967029836929431,-0.010539058605711,0.0210577715384381,0.731976276945301
1.98,1,0.0172734763634144,0.000152592547379986,-0.0100914538000631,-0.0236518448438978,0.000152592547379986,0.0208034506261381,-0.0163274025696585,-0.160415458642333,-0.00818913337605925,0.0536718853317871,0.0278939176610614,0.0131534775841548,-0.0796329640593687,-0.0968148848943551,-0.0100711081270791,0.0210577715384381,0.714967294330678
2.01,1,0.0176803898230944,0.000152592547379986,-0.0101321451460311,-0.0237332275358338,0.000152592547379986,0.0208339691356141,-0.0146183660390027,-0.159479557685069,-0.00745668914863531,0.0561947487818028,0.0357371745963927,0.0193589078442742,-0.0786156804101688,-0.0962045147048352,-0.0102542191839351,0.0210577715384381,0.675262713502406
2.04,1,0.0191351054414502,0.00406913459679963,-0.010803552354503,-0.0238553015737378,0.000152592547379986,0.0207831049531541,-0.0132348602760908,-0.160740989410077,-0.00778221991637928,0.0601418093406985,0.0354625080111087,0.0247098198390657,-0.075940224412773,-0.0949736014893033,-0.0121463667714469,0.0210577715384381,0.594714194158757
2.07,1,0.0198268583229062,0.000885036774803919,-0.0152897732474746,-0.0237942645547858,0.000152592547379986,0.0209356975005341,-0.0126651814325388,-0.161392050945565,-0.00879950356557919,0.0630410677409182,0.0351166315703808,0.0377107048758405,-0.0734987436546932,-0.0932035279396954,-0.0136824650817387,0.0210577715384381,0.491103854487747
2.1,1,0.0206508580787581,0.00340790022481969,-0.010773033845027,-0.0235908078249458,0.000152592547379986,0.021312092450738,-0.0137231564277067,-0.162002421135085,-0.010508540096235,0.0675984984893338,0.0337026072979929,0.076011434268217,-0.0714946948657694,-0.0920946887620675,-0.0126956999420148,0.0210577715384381,0.383556627094333
2.13,1,0.0206610309152501,0.000966419466739911,-0.0138248847926267,-0.0233771782586139,0.000152592547379986,0.02127140110477,-0.0125024160486668,-0.162450025940733,-0.0123396506647949,0.0664591408022299,0.022064882351146,0.180099897254351,-0.0696737571337016,-0.0902432325205237,-0.0127567369609668,0.0207220679342021,0.264178390860724
2.16,1,0.0178940193894264,-0.00768049155145929,-0.00929797255368714,-0.0232551042207099,0.000152592547379986,0.0211188085573901,-0.0177922910245064,-0.165705333618173,-0.010915453555915,0.043621122877692,0.0156458225246946,0.441806288847519,-0.0690430412711977,-0.08686585080518,-0.00685649179560737,0.0205999938962981,0.145491907508571
2.19,1,0.0180059205908383,-0.000701925717947935,-0.00805688650166326,-0.021586759036022,0.0075889360230313,0.0197047842850022,-0.0273954486729535,-0.163141778822189,-0.0142521439252907,0.0245368816187017,-0.00291960407320373,0.791741691335795,-0.0736818547115492,-0.0916165654469436,-0.00985747856074709,0.0145573290200507,0.0530615151422671
2.22,1,0.0179754020813623,0.000152592547379986,-0.0101830093284911,-0.0206712037517421,0.000549333170567949,0.0154423657948546,-0.0396842351552883,-0.159357483647165,-0.0126244900865708,0.0134790083518988,-0.0342214219590848,0.91018402661214,-0.0898973560797957,-0.107801548305714,-0.010528885769219,0.0176396984771264,0.0137638477736747
2.25,1,0.0169784641051464,-0.0021566413363038,-0.010691651153091,-0.0208950061545661,0.000152592547379986,0.0172734763634144,-0.0501419110690634,-0.161880347097181,-0.00696839299701936,0.0249234494053977,-0.0658691162856939,0.683167007456689,-0.103630685343994,-0.120527766757205,-0.0098167872147791,0.0186162907803583,0.00413017161575162
2.28,1,0.0146081932025107,-0.00590024516535946,-0.0064699240089114,-0.0209356975005341,0.000152592547379986,0.0181788588112023,-0.0472935168513037,-0.157404299040702,-0.00452691223893958,0.0210069073559781,-0.0820540991444645,0.291828160445977,-0.113671274961598,-0.12818791263568,-0.00467950478631957,0.0186162907803583,0.0021261228268278
2.31,1,0.0143538722902107,-0.000183111056855983,-0.00682597328613137,-0.0203558458204901,0.0021769870092878,0.0189214758751183,-0.0476597389650156,-0.150242622150334,-0.011363058361563,0.0426547034109521,-0.125410728273364,-0.0123396506647949,-0.139489933978291,-0.153752250740074,-0.00796533097323527,0.0184636982329783,0.00172938220363984
2.34,1,0.0141911069063387,0.000152592547379986,-0.00791446679077527,-0.0198268583229062,-0.00155644398327586,0.00802636799218726,-0.0417594937996562,-0.148981190425326,-0.0157170323801386,0.0496332692444634,-0.177739799188208,-0.103600166834518,-0.164545630258085,-0.17861466312652,-0.00808740501113926,0.0168869085767184,0.00167851802117985
2.37,1,0.0139876501764987,0.000152592547379986,-0.00811792352061525,-0.0194504633727022,0.00531022064882351,0.011169774468215,-0.0423698639891761,-0.155288349050366,-0.0138859218115787,0.0380667541530605,-0.223141168451999,-0.0716778059226254,-0.184820093386639,-0.198726360871202,-0.00808740501113926,0.0128482924893948,0.00167851802117985
2.4,1,0.0137841934466587,0.000152592547379986,-0.00799584948271126,-0.0198573768323822,-0.00173955504013184,0.0100202439446191,-0.0332143111463769,-0.162205877864925,-0.0098167872147791,0.0173446862188584,-0.255246640420749,-0.0151473535365866,-0.201259397157709,-0.214941862239448,-0.00808740501113926,0.0224717958108259,0.00167851802117985
2.43,1,0.0135298725343588,0.000152592547379986,-0.00785342977182328,-0.0193385621712902,-0.00301115960163172,0.0065513067008474,-0.0293486332794173,-0.158340199997965,-0.00940987375509914,-0.00203456729839981,-0.274168116295867,-0.00245165359457177,-0.212174850713624,-0.225633513392539,-0.00769066438795129,0.0169072542497024,0.00167851802117985
2.46,1,0.0132043417666148,0.000152592547379986,-0.00749738049460331,-0.0186468092898343,0.00205491297138381,0.00816878770307525,-0.0255236467584257,-0.155776645201982,-0.00969471317687511,-0.021159499903358,-0.276884263639231,-0.00927762688070314,-0.217983540350556,-0.231086153752251,-0.0076296273689993,0.0140690328684347,0.00167851802117985
2.49,1,0.0126651814325388,0.000152592547379986,-0.0075889360230313,-0.0185043895789463,0.00479140598773156,0.00894192327646718,-0.0208441419721061,-0.153660695211646,-0.00973540452284311,-0.0274361400189215,-0.292133345540737,-0.00908434298735517,-0.221086255480616,-0.233659881384726,-0.00732444227423933,0.0146794030579546,0.00167851802117985
2.52,1,0.010854416536963,-0.0021769870092878,-0.00699891150649536,-0.0188502660196743,-0.000966419466739911,0.00901313313191117,-0.0181992044841863,-0.15113783176163,-0.0098167872147791,-0.0351776685893328,-0.335042369863989,-0.0230211289813939,-0.223517563402203,-0.234321115756706,-0.00609352905870744,0.0194301176997182,0.00167851802117985
2.55,1,0.00793481246375927,-0.00116987619657989,-0.00238044373912778,-0.0191656239509262,-0.00537125766777551,0.00670389924822738,0.0143538722902107,-0.165176346120589,-0.0189316487116103,-0.0390535192927844,-0.348104291919716,-0.0149947609892066,-0.23429059724723,-0.242133854182562,-0.00388602353994364,0.0191757967874182,0.00167851802117985
2.58,1,0.00271614734336375,-0.00466933194982757,-7.12098554439934e-05,-0.0186162907803583,0.000488296151615955,0.00772118289742729,0.0813725190995005,-0.174860886460972,-0.0401318399609363,-0.0134383170059308,-0.0622679321675263,0.101097649057487,-0.242693360189622,-0.245338297677541,0.000823999755851924,0.0161341186763105,0.00167851802117985
2.61,1,-0.000274666585283975,-0.000101728364919991,0.000386567786695964,-0.0193487350077822,-0.000223802402823979,0.0141198970508947,-0.00831120741396323,-0.16981515956094,-0.0496536149174474,0.0147811314228746,-0.0114546138899909,0.0948820459608753,-0.235745312865586,-0.235287535223446,0.000274666585283975,0.0179652292448703,0.00167851802117985
2.64,1,-0.00444552954700359,-0.00565609708955148,0.00200404878892382,-0.0192266609698782,0.000152592547379986,0.0166732790103865,-0.0514440341400393,-0.162368643248797,-0.0256457207963296,-0.00708029419843135,0.00128177739799188,-0.0495824050620034,-0.232856227301859,-0.228166549679047,0.00465915911333557,0.0172429578539384,0.00229906104719179
2.67,1,-0.00789412111779127,-0.00265511032441176,0.00739565212968332,-0.0192266609698782,0.000152592547379986,0.0170293282876064,-0.0421257159133681,-0.154026917325358,-0.00896226894945118,0.0101219723095391,0.0334788048951689,-0.0800093590095727,-0.231940672017579,-0.223863439842931,0.00663268939278339,0.0172429578539384,0.0137943662831507
2.7,1,-0.00967436750389111,8.13826919359925e-05,0.00608335622221544,-0.0192266609698782,0.000152592547379986,0.0170293282876064,-0.0364289274778486,-0.156346324045534,-0.011200292977691,0.00208543148085981,0.0342926318145288,-0.0172124393444624,-0.227169611702831,-0.217281614632608,0.00585955381939146,0.0172429578539384,0.0285348063600574
2.73,1,-0.011118910285755,0.000152592547379986,0.00626646727907142,-0.0192266609698782,0.000152592547379986,0.0170700196335744,-0.0407422101504562,-0.157526373078606,-0.0142928352712587,0.000223802402823979,0.0431023082166,0.0144149093091627,-0.223273415326395,-0.21190018412834,0.00662251655629139,0.0172429578539384,0.0487889238156275
2.76,1,-0.0122582679728589,0.000152592547379986,0.00699891150649536,-0.0193792535172582,0.000152592547379986,0.0171107109795424,-0.0400504572690003,-0.155776645201982,-0.0181992044841863,-0.00482192449720756,0.0512609230831833,-0.000986765139723909,-0.220404675435652,-0.207953123569445,0.00739565212968332,0.0172429578539384,0.0735089164911852
2.79,1,-0.0118106631672109,0.00410982594276762,0.00384533219397565,-0.0197963398134302,-0.000478123315123956,0.0172633035269224,-0.0372834457431766,-0.155776645201982,-0.0164087852615945,-0.0117292804752749,0.0490228990549435,-0.0164189580980865,-0.217006948047324,-0.204952136804305,0.00455743074841558,0.0174871059297464,0.097883032726015
2.82,1,-0.0121056754254789,0.00380464084800765,0.00777204707988728,-0.022156437879574,-0.00704977568895535,0.0211493270668661,-0.0369172236294646,-0.157282225002798,-0.0134790083518988,-0.00902330596840317,0.0472833440148116,-0.0126855271055228,-0.2132226528723,-0.200913520716982,0.0065207881913714,0.0252896715191097,0.126316110721152
2.85,1,-0.0126855271055228,0.00121056754254789,0.00565609708955148,-0.0222785119174779,0.000152592547379986,0.02137312946969,-0.0353302611367128,-0.157363607694734,-0.0151473535365866,-0.00592059083834346,0.0412915433210242,-0.0163782667521185,-0.208532975249489,-0.195643991414126,0.00681580044963937,0.0197759941404462,0.153691213721122
2.88,1,-0.0134383170059308,0.000152592547379986,0.00749738049460331,-0.0228888821069979,-0.00331634469639169,0.0205084383678701,-0.0380565813165685,-0.157119459618926,-0.0156356496882026,-0.00790429395428327,0.0347911008026368,-0.022003845332194,-0.205837173579109,-0.192185227006846,0.00811792352061525,0.0205694753868221,0.180476292204555
2.91,1,-0.0141198970508947,0.000152592547379986,0.00817896053956725,-0.0255236467584257,-0.00767031871496729,0.0252184616636657,-0.0359813226722007,-0.156916002889086,-0.0143742179631947,-0.010996836247851,0.0366018656982126,-0.0206610309152501,-0.203578803877885,-0.189235104424167,0.00851466414380322,0.0281482385733614,0.205704926704713
2.94,1,-0.0148116499323506,0.000152592547379986,0.0087079480371512,-0.0275175227108575,-0.00419120863470361,0.0282092755923134,-0.0349233476770328,-0.157729829808445,-0.0140893785414187,-0.0135502182073428,0.04300057985168,-0.0197658213039542,-0.19998779259621,-0.184942167424543,0.00891140476699118,0.0296741640471613,0.228176722515539
2.97,1,-0.0154525386313466,0.000152592547379986,0.00923693553473515,-0.0278430534786014,-0.000478123315123956,0.0263171280048016,-0.0381379640085045,-0.155369731742302,-0.0152287362285226,-0.0161442915128025,0.0448723817662079,-0.0187485376547543,-0.197403892127242,-0.181727551093071,0.00930814539017914,0.0245674001281777,0.250709555345317
3,1,-0.0158899706005025,0.000152592547379986,0.00940987375509914,-0.0310271513005971,-0.0127363912879828,0.0289722383292133,-0.0354523351746167,-0.156305632699566,-0.0144962920010987,-0.0198675496688742,0.04396699931842,-0.0152897732474746,-0.19647816400647,-0.180374563839635,0.0097557501958271,0.0353912981556647,0.273934141056551
3.03,1,-0.0161239458398185,0.000152592547379986,0.00984730572425509,-0.032695496485285,-0.00203456729839981,0.0337432986439609,-0.0334177678762169,-0.159967853836685,-0.0134790083518988,-0.0224209316283659,0.0520645771660512,-0.0161442915128025,-0.191615548163294,-0.175267799920652,0.00991851557969909,0.032420829900001,0.295154677978861
3.06,1,-0.0163274025696585,0.000152592547379986,0.00989816990671509,-0.032848089032665,0.000152592547379986,0.0304778181300292,-0.0348419649850968,-0.155695262510046,-0.0146997487309386,-0.0242927335428938,0.0484023560289315,-0.0181890316476943,-0.188350067649363,-0.171819208349864,0.00991851557969909,0.0294503616443373,0.320139164403211
3.09,1,-0.0161951556952625,0.000152592547379986,0.00985747856074709,-0.0351166315703808,-0.0076398002054913,0.032939644561093,-0.032074953459273,-0.157607755770541,-0.0121768852809229,-0.0265511032441176,0.0392976673685924,-0.0168970814132104,-0.186132389294107,-0.169723604032512,0.00991851557969909,0.0366120385347046,0.346273181351156
3.12,1,-0.0160832544938505,0.000152592547379986,0.00989816990671509,-0.0355540635395367,0.00011190120141199,0.0339671010467849,-0.032319101535081,-0.158625039419741,-0.010874762209947,-0.0205389568773461,0.0382091738639485,-0.0193792535172582,-0.181503748690247,-0.165196691793573,0.00991851557969909,0.0319223609118931,0.377320678324737
3.15,1,-0.0160222174748985,0.000152592547379986,0.00984730572425509,-0.0372631000701926,-0.00743634347565132,0.0341298664306569,-0.032685323648793,-0.156671854813278,-0.0125024160486668,-0.0223802402823979,0.0320139164403211,-0.0205796482233141,-0.179937131870479,-0.163691111992757,0.00991851557969909,0.0381583096814885,0.404441460412407
3.18,1,-0.0160222174748985,0.000152592547379986,0.00998972543514308,-0.0381481368449965,-9.15555284279916e-05,0.0369273964659566,-0.032441175572985,-0.159276100955229,-0.010996836247851,-0.0192571794793542,0.0337432986439609,-0.0224107587918739,-0.176946317941832,-0.160740989410077,0.00991851557969909,0.0342824589780368,0.429517502365184
3.21,1,-0.0158797977640105,0.000152592547379986,0.00972523168635111,-0.0382396923734245,0.000152592547379986,0.0338653726818649,-0.0342315947955768,-0.157607755770541,-0.0115665150914029,-0.0205389568773461,0.0375377666554765,-0.0205898210598061,-0.176234219387392,-0.160140792057049,0.00991851557969909,0.0337229529709769,0.453698334706666
3.24,1,-0.0158696249275185,0.000152592547379986,0.00984730572425509,-0.0383515935748365,0.000152592547379986,0.0337331258074689,-0.0331736198004089,-0.156468398083438,-0.0121768852809229,-0.0210272530289621,0.0463067517115797,-0.0169174270861944,-0.175186417228716,-0.159123508407849,0.00991851557969909,0.0340891750846889,0.472345143996501
3.27,1,-0.0158696249275185,0.000152592547379986,0.00992868841619108,-0.0384533219397565,0.000152592547379986,0.0342824589780368,-0.033010854416537,-0.156346324045534,-0.011240984323659,-0.0202337717825861,0.054709514653971,-0.0140486871954507,-0.173334960987172,-0.157272052166306,0.00991851557969909,0.0343333231604968,0.491459903764967
3.3,1,-0.0145471561835587,0.00478123315123956,0.00926745404421115,-0.0385652231411685,0.000152592547379986,0.0342417676320688,-0.033092237108473,-0.156712546159246,-0.011200292977691,-0.0229295734529659,0.0700704977568896,-0.0157984150720745,-0.170761233354696,-0.156000447604806,0.00752789900407931,0.0343333231604968,0.518377229122796
3.33,1,-0.0130008850367748,0.00410982594276762,0.00489313435265155,-0.0386059144871364,0.000152592547379986,0.0343028046510208,-0.0358999399802647,-0.157078768272958,-0.0098167872147791,-0.0231838943652659,0.101901303140355,-0.0190130314035463,-0.167556789859717,-0.15434227525661,0.00512710959196753,0.0343333231604968,0.545630258084862
3.36,1,-0.0120344655700349,0.000295012258267973,0.00670389924822738,-0.0387381613615324,0.000152592547379986,0.0342010762861008,-0.0383007293923765,-0.156712546159246,-0.00940987375509914,-0.02213609220659,0.159764397106845,-0.0264392020427056,-0.165440839869381,-0.153192744733014,0.00735496078371532,0.0343333231604968,0.568865016632588
3.39,1,-0.0086672566911832,0.00165817234819585,0.0065309610278634,-0.0387585070345164,0.000152592547379986,0.0343536688334808,-0.0228380179245379,-0.158543656727805,-0.0098167872147791,-0.0206406852422661,0.186702068137659,-0.0320037436038291,-0.157811212500381,-0.148930326242866,0.00568661559902748,0.0343333231604968,0.580065309610279
3.42,1,0.00168869085767184,0.0207017222612181,-0.00390636921292764,-0.0388704082359284,0.000152592547379986,0.0342214219590848,-0.0157170323801386,-0.163019704784285,-0.00940987375509914,-0.0245470544551937,0.130904059979044,-0.00484227017019155,-0.145502080345063,-0.147048351491846,-0.00965402183090711,0.0346079897457808,0.602445549892677
3.45,1,0.00897244178594317,0.0125532802311268,-0.0120242927335429,-0.0389110995818964,0.000152592547379986,0.0346181625822728,-0.0154728843043306,-0.160659606718141,-0.00985747856074709,-0.0277413251136814,0.0903042695394757,-0.00964384899441511,-0.137994527013967,-0.146895758944466,-0.0118411816766869,0.0347911008026368,0.620502334665975
3.48,1,0.0119225643686229,0.0010478021586759,-0.0086672566911832,-0.0388704082359284,0.000152592547379986,0.0345774712363048,-0.0188502660196743,-0.159886471144749,-0.00839259010589923,-0.0273242388175095,0.0522476882229072,-0.00301115960163172,-0.128889838353628,-0.140720847193823,-0.00732444227423933,0.0347300637836848,0.637012848292489
3.51,1,0.0142012797428307,0.000152592547379986,-0.0076092816960153,-0.0386974700155644,0.000152592547379986,0.0345876440727968,-0.0139266131575467,-0.160578224026205,-0.0087181208736432,-0.0297555467390973,0.00923693553473515,-0.011332539852087,-0.122104556413465,-0.136234626300851,-0.00805688650166326,0.0343333231604968,0.651997436445204
3.54,1,0.0130720948922188,-0.00772118289742729,-0.00627664011556342,-0.0386059144871364,0.000152592547379986,0.0343740145064648,-0.0158391064180425,-0.160089927874589,-0.00733461511073133,-0.0338043356629129,-0.0456963815220598,-0.00958281197546312,-0.118910285754977,-0.131880652282276,-0.00374360382905566,0.0343333231604968,0.660217088330739
3.57,1,0.0119937742240669,-0.00599180069378745,-0.00411999877925962,-0.0386262601601204,0.000152592547379986,0.0342417676320688,-0.0133162429680268,-0.159927162490717,-0.00562557858007548,-0.0242927335428938,-0.0934883673614714,-0.00315357931251971,-0.119795322529781,-0.13169754122542,-0.0043539740185756,0.0343333231604968,0.664632099368267
3.6,1,0.00814844203009125,-0.00579851680043947,-0.00155644398327586,-0.0387991983804844,0.000152592547379986,0.0341909034496089,-0.0304879909665212,-0.159886471144749,-0.00676493626717938,-0.0189723400575783,-0.103040660827459,0.0223395489364299,-0.124322234768721,-0.132399466943368,-0.0021668141727958,0.0343943601794488,0.670949430829798
3.63,1,-0.00462864060385957,-0.0317799412010051,0.00910468866033916,-0.0389110995818964,0.000152592547379986,0.0346283354187648,-0.0303659169286172,-0.155125583666494,-0.00704977568895535,-0.010905280719423,-0.0310474969735811,0.000834172592343923,-0.130161442915128,-0.12533951841792,0.0169988097781304,0.0347911008026368,0.66806034526607
3.66,1,-0.010478021586759,-0.00951160212001912,0.0173243405458744,-0.0390331736198004,0.000152592547379986,0.0347198909471928,-0.0418815678375601,-0.153904843287454,-0.00745668914863531,-0.0115766879278949,0.054577267779575,0.0128991566718548,-0.132267220068972,-0.121545050406405,0.0129805393637908,0.0347911008026368,0.666910814742475
3.69,1,-0.0129703665272988,-0.000274666585283975,0.00879950356557919,-0.0390636921292764,0.000152592547379986,0.0347300637836848,-0.0211289813938821,-0.158909878841517,-0.00586972665588346,-0.00674459059419538,0.0727459537542853,0.0123498235012869,-0.131158380891344,-0.117954039124729,0.00808740501113926,0.0347911008026368,0.677409182002218
3.72,1,-0.0147811314228746,0.000152592547379986,0.00843328145186722,-0.0390636921292764,0.000152592547379986,0.0346791996012248,-0.0248318938769697,-0.160212001912493,-0.00586972665588346,-0.00616473891415143,0.06478062278105,0.0129296751813308,-0.126265246538692,-0.11123996704001,0.00885036774803919,0.0347911008026368,0.710776085695975
3.75,1,-0.0162968840601825,0.000152592547379986,0.00939970091860714,-0.0389721366008484,0.000152592547379986,0.0347402366201768,-0.0232449313842179,-0.158950570187485,-0.00639871415346741,-0.00234992522965178,0.0767031871496729,0.00625629444257942,-0.123294778283029,-0.106753746147038,0.00984730572425509,0.0347911008026368,0.741040274259672
3.78,1,-0.0173853775648264,0.000152592547379986,0.010386466058331,-0.0388907539089124,0.000152592547379986,0.0348826563310648,-0.0191351054414502,-0.159723705760877,-0.00696839299701936,-0.00509659108249153,0.0717083244321014,0.00466933194982757,-0.118025248980173,-0.100416069012523,0.010559404278695,0.0347911008026368,0.76184372488581
3.81,1,-0.0181890316476943,0.000152592547379986,0.010854416536963,-0.0387483341980244,0.000152592547379986,0.0350250760419528,-0.0187688833277383,-0.159886471144749,-0.00517797377442752,-0.00645975117241941,0.054455193741671,0.00275683868933175,-0.11205379395937,-0.0936307870723594,0.011017181920835,0.0343333231604968,0.773735770744957
3.84,1,-0.0190028585670543,0.000152592547379986,0.011210465814183,-0.0373139642526526,0.00735496078371532,0.0333465580207729,-0.02137312946969,-0.159438866339101,-0.00513728242845953,-0.00337738171534369,0.0584734641560106,-2.03456729839981e-05,-0.10905280719423,-0.0898668375703197,0.0114749595629749,0.0288094729453413,0.775332906074201
3.87,1,-0.0197353027944782,0.000152592547379986,0.0117903174942269,-0.0363170262764367,0.000783308409883928,0.0277616707866654,-0.0185654265978983,-0.158828496149581,-0.00627664011556342,-0.00241096224860378,0.0644856105227821,0.000417086296171962,-0.106234931485946,-0.0862859991251361,0.0119123915321309,0.0311390525020091,0.777886288033692
3.9,1,-0.0205084383678701,0.000152592547379986,0.0122379222998749,-0.0345062613808608,0.00784325693533128,0.0290739666941333,-0.0181585131382183,-0.159683014414909,-0.00595110934781945,0.000783308409883928,0.06513667205827,0.000528987497583951,-0.100558488723411,-0.0798059022797327,0.0124820703756829,0.0255643381043936,0.776065350301625
3.93,1,-0.021251055431786,0.000152592547379986,0.0126956999420148,-0.0314340647602771,0.00815861486658325,0.0231533758557899,-0.021698660237434,-0.159154026917325,-0.00603249203975545,-0.00281787570828374,0.0679748934395377,-0.00125125888851588,-0.0990529089225949,-0.0775882239244769,0.0129093295083468,0.022227647735018,0.784061199784336
3.96,1,-0.021952981149734,0.000152592547379986,0.0131534775841548,-0.0297962380850653,0.00822982472202724,0.0245470544551937,-0.0139266131575467,-0.159764397106845,-0.00603249203975545,-0.00315357931251971,0.0734478794722332,0.000284839421775974,-0.0948413546149073,-0.0726543982258573,0.0132755516220588,0.021851252784814,0.787560655537584
3.99,1,-0.0225124871567939,0.000152592547379986,0.0135298725343588,-0.0253303628650777,0.0150049338256986,0.0177312540055544,-0.0193792535172582,-0.159154026917325,-0.00534073915829951,-0.00477106031474756,0.0699687693919696,-0.0021871598457798,-0.0902025411745557,-0.0674662516149378,0.0137333292641987,0.0118920458591469,0.789595222835983
4.02,1,-0.0228787092705059,0.000152592547379986,0.0138554033021027,-0.0241299681590218,0.000813826919359925,0.0153711559394106,-0.0132755516220588,-0.159357483647165,-0.00534073915829951,-0.00300098676513972,0.0551062552771589,-0.00464898627684357,-0.086845505132196,-0.0637938576413261,0.0137333292641987,0.0203151544745221,0.78672648294524
4.05,1,-0.0231330301828059,0.000152592547379986,0.0141300698873867,-0.0204575741854101,0.0148625141148106,0.0146488845484787,-0.0151066621906186,-0.160171310566525,-0.00534073915829951,-0.000722271390931934,0.0576596372366507,-0.00584938098289946,-0.0819015065970845,-0.0585243283384706,0.0141911069063387,0.00898261462243517,0.785953347371848
4.08,1,-0.0233364869126459,0.000152592547379986,0.0141504155603707,-0.0191045869319742,0.00116987619657989,0.00641905982645141,-0.0165308592994985,-0.159764397106845,-0.00452691223893958,0.00315357931251971,0.0423800368256681,-0.00670389924822738,-0.0814132104454685,-0.0578630939664907,0.0141911069063387,0.0153508102664266,0.78382722454502
4.11,1,-0.0234178696045818,0.000152592547379986,0.0142012797428307,-0.0176193528041424,0.00735496078371532,0.010488194423251,-0.0133569343139948,-0.158706422111677,-0.00497451704458754,0.00814844203009125,0.0458184555599638,-0.00404878892381563,-0.0774458042135889,-0.0537837865331991,0.0141911069063387,0.011332539852087,0.782728558203884
4.14,1,-0.0237027090263578,0.000152592547379986,0.0142216254158147,-0.0163680939156265,0.000783308409883928,0.00614439324116743,-0.0146590573849707,-0.159194718263293,-0.00513728242845953,0.0119937742240669,0.0443027029226559,-0.00224819686473179,-0.076306446526485,-0.0524002807702872,0.0141911069063387,0.0133772799869788,0.78657389039786
4.17,1,-0.0239773756116418,0.000152592547379986,0.0145573290200507,-0.0140181686859747,0.00796533097323527,0.00750755333109531,-0.0133569343139948,-0.158991261533453,-0.00721254107282734,0.00809757784763126,0.0427869502853481,-2.03456729839981e-05,-0.0721050650552894,-0.0479242327138076,0.0148014770958586,0.00718202256335134,0.788832260099083
4.2,1,-0.0242011780144658,0.000152592547379986,0.0147913042593666,-0.0128788109988708,0.00577817112745547,0.00782291126234728,-0.010467848750267,-0.160089927874589,-0.00664286222927539,0.00312306080304371,0.0300709046703492,-0.000305185094759972,-0.0702230903042695,-0.0458184555599638,0.0148014770958586,0.00930814539017914,0.786797692800684
4.23,1,-0.0243741162348298,0.000152592547379986,0.0148014770958586,-0.011200292977691,0.00232957955666779,0.00552385021515549,-0.0140486871954507,-0.159927162490717,-0.00615456607765943,-0.000823999755851924,0.0230923388368379,-0.000732444227423933,-0.0683614612262337,-0.043804233934548,0.0148014770958586,0.00691752881455936,0.789605395672475
4.26,1,-0.0244148075807978,0.000152592547379986,0.0147506129133986,-0.0100202439446191,0.0065106153548794,0.00618508458713543,-0.0122175766268909,-0.159316792301197,-0.0076601458784753,-0.00523901079337952,0.0273242388175095,-0.00154627114678386,-0.0669474369538458,-0.0422884812972401,0.0148014770958586,0.00598162785729545,0.790205593025503
4.29,1,-0.0244148075807978,0.000152592547379986,0.0148625141148106,-0.00854518265327921,0.00162765383871985,0.00284839421775974,-0.011078218939787,-0.159520249031037,-0.0064800968454034,-0.010345774712363,0.0244961902727337,-0.000712098554439934,-0.0659301533046459,-0.0413118889940082,0.0148014770958586,0.00532039348531551,0.795454776655375
4.32,1,-0.0244148075807978,0.000152592547379986,0.0147302672404146,-0.00690735597806736,0.00774152857041129,0.00258390046896776,-0.0126651814325388,-0.159438866339101,-0.00501520839055554,-0.0124820703756829,0.0257779676707256,0.00227871537420779,-0.0635802280749942,-0.0389009267454044,0.0148014770958586,0.00141402427238787,0.811436302784305
4.35,1,-0.0244148075807978,0.000152592547379986,0.0147302672404146,-0.00570696127201147,0.00242113508509578,0.00366222113711966,-0.010508540096235,-0.159967853836685,-0.00521866512039552,-0.0141198970508947,0.0282601397747734,-0.00163782667521185,-0.0628783023570462,-0.0381583096814885,0.0148014770958586,0.00496434420809554,0.826604001993876
4.38,1,-0.0244148075807978,0.000152592547379986,0.0147811314228746,-0.00366222113711966,0.00596128218431145,-0.000640888698995941,-0.0136417737357707,-0.160863063447981,-0.00566626992604348,-0.0130619220557268,0.0273751029999695,-0.00173955504013184,-0.0616270434685303,-0.0370189519943846,0.0148014770958586,-0.0021464684998118,0.834640542822555
4.41,1,-0.0242825607064018,0.000152592547379986,0.0148218227688426,-0.00264493748791976,0.0065106153548794,0.00237027090263578,-0.0100609352905871,-0.159764397106845,-0.00493382569861955,-0.0120242927335429,0.0255134739219337,-0.00165817234819585,-0.0601621550136825,-0.0356659647409487,0.0148014770958586,-0.000691752881455936,0.841191849523403
4.44,1,-0.0242011780144658,0.000152592547379986,0.0147607857498906,-0.00122074037903989,0.00162765383871985,-0.00156661681976786,-0.0097760958688111,-0.159927162490717,-0.00399792474135563,-0.00737530645669932,0.0168869085767184,-0.00381481368449965,-0.0590940071820226,-0.0346791996012248,0.0148014770958586,-0.000925728120771915,0.84713278603473
4.47,1,-0.0241096224860378,0.000152592547379986,0.0147913042593666,-0.000661234371979939,0.00362152979115167,0.000264493748791976,-0.011322367015595,-0.159479557685069,-0.00269580167037975,0.000122074037903989,0.0145675018565427,-0.00126143172500788,-0.0573137607959227,-0.032980335907061,0.0148014770958586,0.000488296151615955,0.850886562700278
4.5,1,-0.0241096224860378,0.000152592547379986,0.0146387117119867,0.0011393576871039,0.00451673940244758,-0.00282804854477574,-0.011240984323659,-0.159683014414909,-0.00375377666554765,0.00881984923856319,0.0165918963184505,0.000579851680043947,-0.0578325754570147,-0.0335296690776289,0.0148014770958586,-0.00578834396394747,0.85191401918597
4.53,1,-0.0239773756116418,0.000152592547379986,0.0148625141148106,0.0010681478316599,0.000152592547379986,0.0010376293221839,-0.010508540096235,-0.159276100955229,-0.0032654805139317,0.0150557980081586,0.0240282397941018,-0.00159713532924385,-0.0564185511846268,-0.032197027497177,0.0148014770958586,-0.000335703604235969,0.85160883409121
4.56,1,-0.0238858200832138,0.000152592547379986,0.0146590573849707,0.00198370311593982,0.00576799829096347,0.000854518265327921,-0.011363058361563,-0.158909878841517,-0.00359101128167567,0.0236416720074058,0.0317290770185451,-0.00350962858973968,-0.0558183538315989,-0.0317392498550371,0.0148014770958586,-0.00344859157078768,0.85211747591581
4.59,1,-0.0237027090263578,0.000152592547379986,0.0147200944039226,0.00350962858973968,0.00232957955666779,-0.00416069012522762,-0.010427157404299,-0.159194718263293,-0.00440483820103559,0.0312204351939451,0.0339569282102929,-0.00522883795688752,-0.054699341817479,-0.0307728303882972,0.0143131809442427,-0.00574765261797947,0.850367748039186
4.62,1,-0.0234890794600258,0.000152592547379986,0.0142826624347667,0.00350962858973968,0.000152592547379986,-0.00399792474135563,-0.00940987375509914,-0.160212001912493,-0.00489313435265155,0.0355744092125207,0.0358185572883287,-0.00473036896877956,-0.0524918362987152,-0.0287789544358654,0.0141911069063387,-0.00274666585283975,0.854192734560177
4.65,1,-0.021688487400942,0.0064902696818954,0.0128177739799188,0.00484227017019155,0.00735496078371532,-0.00429293699962361,-0.0098167872147791,-0.160985137485885,-0.00371308531957966,0.043092135380108,0.0458794925789158,-0.00505589973652353,-0.0500605283771274,-0.0281584114098534,0.00995920692566708,-0.00816878770307525,0.853816339609973
4.68,1,-0.02213609220659,-0.000966419466739911,0.0129601936908068,0.00590024516535946,0.000783308409883928,-0.00722271390931934,-0.011240984323659,-0.160781680756045,-0.00350962858973968,0.054546749270099,0.0565101067130548,-0.00422172714417961,-0.0475681834365876,-0.0252388073366497,0.0149032054607786,-0.00586972665588346,0.851578315581734
4.71,1,-0.0208644876450901,0.00355031993570767,0.011007009084343,0.00855535548977121,0.0126651814325388,-0.00807723217464726,-0.00900296029541917,-0.159967853836685,-0.00513728242845953,0.0678223008921578,0.0769371623889889,-0.00600197353027945,-0.0443840856145919,-0.0233059684031699,0.010345774712363,-0.0136519465722627,0.846949674977874
4.74,1,-0.0211086357208981,0.000284839421775974,0.0119123915321309,0.0115970336008789,0.0102643920204271,-0.0130720948922188,-0.0127872554704428,-0.161107211523789,-0.00460829493087558,0.0789310383414207,0.100670389924823,-0.00593076367483545,-0.0418205308186082,-0.0204982655313781,0.0127262184514908,-0.0179652292448703,0.842697429324218
4.77,1,-0.0211696727398501,0.000152592547379986,0.0126143172500788,0.0145369833470667,0.00886054058453118,-0.0161239458398185,-0.00945056510106713,-0.161676890367341,-0.00709046703492335,0.0924100466933195,0.12518692587054,-0.0043844925280516,-0.0372122358877326,-0.0157984150720745,0.0128177739799188,-0.0191554511144342,0.843501083407086
4.8,1,-0.0187587104912463,0.00722271390931934,0.0114953052359589,0.0180364391003143,0.0115868607643869,-0.0192673523158462,-0.00676493626717938,-0.162979013438317,-0.00884019491154719,0.110090436516414,0.131321146275216,0.000996937976215908,-0.032553076774397,-0.0135807367168188,0.00844345428835922,-0.021281573941262,0.834294666381827
4.83,1,-0.0177821181880144,0.00175990071311584,0.00853500981678721,0.0202337717825861,0.00455743074841558,-0.022176783552558,-0.00204474013489181,-0.159886471144749,-0.010711996826075,0.114505447553941,0.105665252642394,0.00309254229356772,-0.0243537705618458,-0.00633767713451542,0.00967436750389111,-0.0227566352326019,0.815596992909533
4.86,1,-0.0169072542497024,0.000172938220363984,0.010386466058331,0.0202948088015381,0.000152592547379986,-0.0196539201025422,0.00259407330545976,-0.157404299040702,-0.0132348602760908,0.110243029063794,0.0645263018687501,0.00497451704458754,-0.0158797977640105,0.00114953052359589,0.010376293221839,-0.0173955504013184,0.786960458184556
4.89,1,-0.0161951556952625,0.000152592547379986,0.0101524908190151,0.0203761914934741,0.000152592547379986,-0.0178228095339824,-0.000701925717947935,-0.159642323068941,-0.0150252794986826,0.107771029796238,0.0305897193314412,0.00492365286212755,-0.010335601875871,0.00593076367483545,0.00991851557969909,-0.0173955504013184,0.724255094047873
4.92,1,-0.0160222174748985,0.000152592547379986,0.00993886125268309,0.0204474013489181,0.000152592547379986,-0.0176803898230944,-0.00310271513005971,-0.162246569210893,-0.0146183660390027,0.104698833175654,0.0423291726432081,0.00171920936714784,-0.00944039226457513,0.00670389924822738,0.00991851557969909,-0.0173955504013184,0.623971271909747
4.95,1,-0.0159510076194545,0.000152592547379986,0.0097455773593351,0.0203355001475061,0.000152592547379986,-0.0171615751620024,0.00186162907803583,-0.162124495172989,-0.0165715506454665,0.108574683879106,0.0488601336710715,-0.00306202378409172,-0.00518814661091952,0.010823898027487,0.00991851557969909,-0.0173955504013184,0.505203405865657
4.98,1,-0.0156356496882026,0.000152592547379986,0.00972523168635111,0.0202948088015381,0.000152592547379986,-0.0174362417472864,-0.000905382447787917,-0.163345235552029,-0.0164901679535305,0.114576657409385,0.0481582079531236,-0.00173955504013184,-0.00134281441694388,0.0143538722902107,0.00943021942808313,-0.0173955504013184,0.379141616056805
5.01,1,-0.0132145146031068,0.00725323241879533,0.00743634347565132,0.0201320434176662,-0.000478123315123956,-0.0175481429486984,-0.00464898627684357,-0.167495752840765,-0.0142114525793227,0.120069989115065,0.0613625497197384,-0.000142419710887987,0.000773135573391929,0.0141504155603707,0.00500503555406354,-0.0173955504013184,0.240251879431542
5.04,1,-0.0121870581174149,0.00175990071311584,0.00483209733369956,0.0189316487116103,-0.00053916033407595,-0.00704977568895535,-0.0087588122196112,-0.177465132602924,-0.00599180069378745,0.128360850856044,0.0995717235836868,-0.032258064516129,0.0054221218502355,0.0178228095339824,0.00624612160608743,-0.0152287362285226,0.101128167566963
5.07,1,-0.0101117994730471,0.000172938220363984,0.00642923266294341,0.0178533280434584,-0.00636819564399141,-0.00936918240913114,-0.0103050833663951,-0.176244392223884,-0.000823999755851924,0.124607074190497,0.130904059979044,-0.118004903307189,0.0127669097974588,0.0230923388368379,0.00628681295205542,-0.010834070863979,0.0240689311400698
5.1,1,-0.00522883795688752,0.00476088747825556,0.00427259132663961,0.0168360443942585,-0.00616473891415143,-0.010722169662567,-0.0422884812972401,-0.156061484623758,0.0149235511337626,0.0123599963377789,-0.0363882361318807,-0.153589485356202,0.00286873989074374,0.00831120741396323,0.00224819686473179,-0.0114037497075309,0.00624612160608743
5.13,1,-0.00261441897844376,-0.00257372763247576,-6.10370189519944e-05,0.0154423657948546,-0.00132246874395988,-0.00297046825566373,-0.0266223130995615,-0.155329040396334,0.00690735597806736,-0.032512385428429,-0.0863470361440881,-0.0697144484796696,-0.0128279468164108,-0.00998972543514308,0.00199387595243182,-0.010834070863979,0.00256355479598376
5.16,1,0.000549333170567949,0.00314340647602771,0.000813826919359925,0.0156153040152186,0.000152592547379986,-0.00781273842585528,-0.0237739188818018,-0.149184647155166,0.00186162907803583,-0.0927864416435235,-0.100995920692567,0.0616372163050223,-0.0284635965046134,-0.0288806828007853,-0.00139367859940387,-0.0134281441694388,0.00182093773206783
5.19,1,0.00211594999033581,-0.000417086296171962,0.00160730816573585,0.0157170323801386,0.000152592547379986,-0.011108737449263,-0.0305693736584572,-0.148452202927742,0.00226854253771579,-0.135217342651652,-0.144718771935179,0.102155624052655,-0.0482599363180436,-0.0502843307799514,0.00053916033407595,-0.0134281441694388,0.00167851802117985
5.22,1,0.00283822138126774,-0.00315357931251971,-0.00151575263730786,0.0138859218115787,-0.0075991088595233,-0.00921658986175115,-0.0366730755536566,-0.15378276924955,-0.00350962858973968,-0.159011607206437,-0.183355204931791,0.0936409599088514,-0.0723186946216214,-0.0750653604744611,-0.000956246630247912,-0.00664286222927539,0.00167851802117985
5.25,1,0.0043844925280516,-0.000661234371979939,0.000152592547379986,0.0134281441694388,7.12098554439934e-05,-0.00514745526495153,-0.0350454217149368,-0.153253781751966,-0.0076601458784753,-0.181422365998311,-0.23800368256681,0.0174769330932544,-0.102460809147415,-0.106743573310546,-0.00138350576291187,-0.011169774468215,0.00167851802117985
5.28,1,0.00556454156112349,0.000152592547379986,-0.00177007354960784,0.0134281441694388,0.000152592547379986,-0.00856552832626321,-0.033010854416537,-0.153457238481806,-0.0130720948922188,-0.181941180659403,-0.290302234972177,-0.114983570869065,-0.129795220801416,-0.13525803399762,-0.00280770287179174,-0.0114444410534989,0.00167851802117985
5.31,1,0.00630715862503942,0.000152592547379986,-0.0032959990234077,0.0134281441694388,0.000152592547379986,-0.0103050833663951,-0.0271106092511775,-0.150201930804366,-0.022024191005178,-0.17627491073336,-0.351603747672964,-0.252510147404401,-0.153915016123946,-0.160140792057049,-0.00320444349497971,-0.0114444410534989,0.00167851802117985
5.34,1,0.00617491175064343,0.000152592547379986,-0.0032756533504237,0.0114240953805149,-0.0076398002054913,-0.0075787631865393,-0.0130720948922188,-0.150608844264046,-0.0356557919044567,-0.125115716015096,-0.3930071921954,-0.361359497868791,-0.170842616046632,-0.176946317941832,-0.00320444349497971,-0.0043844925280516,0.00167851802117985
5.37,1,0.00461846776736758,0.000152592547379986,-0.00263476465142776,0.011322367015595,0.00011190120141199,-0.00428276416313161,0.102003031505275,-0.189591153701387,-0.0917691579943236,-0.043794061098056,-0.201391644032105,-0.169133579515976,-0.165227210303049,-0.169733776869004,-0.00248217210404777,-0.00942004659159113,0.00167851802117985
5.4,1,0.00368256681010366,0.000366222113711966,-0.00137333292641987,0.00953194779300312,-0.00753807184057131,-0.00262459181493576,0.0770999277728609,-0.179499699901323,-0.103895179092786,0.0211696727398501,0.181493575853755,0.117964211961221,-0.162826420890937,-0.166437777845597,-0.00158696249275185,-0.00296029541917173,0.00156661681976786
5.43,1,0.00823999755851924,0.010376293221839,-0.00516780093793552,0.00689718314157537,-0.00776187424339529,0.000457777642139958,0.0226549068676819,-0.165786716310109,-0.0156763410341706,-0.0358185572883287,0.0163782667521185,-0.0774458042135889,-0.164871161025829,-0.173039948728904,-0.00925728120771915,-0.000264493748791976,0.0142928352712587
5.46,1,0.00754824467706331,-0.00644957833592741,-0.00566626992604348,0.00494399853511155,-0.00736513362020732,-0.0010681478316599,-0.0196234015930662,-0.168879258603676,0.00442518387401959,0.0169886369416384,-0.00615456607765943,-0.0271106092511775,-0.164515111748609,-0.171981973733736,-0.00208543148085981,0.00076296273689993,0.0584022543005666
5.49,1,0.00717184972685934,-0.00338755455183569,-0.000447604805647959,0.00278735719880774,-0.00705994852544735,0.0011291848506119,-0.022024191005178,-0.156387015391502,-0.00770083722444329,0.0174464145837784,0.0317494226915291,-0.000417086296171962,-0.161564989165929,-0.168665629037344,-0.00138350576291187,0.00236009806614378,0.0862046164332001
5.52,1,0.00798567664621926,5.08641824599953e-05,-0.00358083844518367,0.00162765383871985,-0.000823999755851924,0.00268562883388775,-0.0173853775648264,-0.160293384604429,-0.00835189875993123,0.0163986124251025,0.0490228990549435,-0.0175786614581744,-0.152063559882402,-0.159967853836685,-0.00415051728873562,0.000528987497583951,0.116529842015849
5.55,1,0.00891140476699118,0.000152592547379986,-0.0043844925280516,0.000915555284279916,-0.00550350454217149,0.0011393576871039,-0.0160832544938505,-0.160212001912493,-0.0117699718212429,0.00937935524562314,0.0459913937803278,0.0021464684998118,-0.140985340942615,-0.149856054363638,-0.00491348002563555,0.00201422162541581,0.15200252286345
5.58,1,0.00983713288776309,0.000152592547379986,-0.00508641824599953,-0.000518814661091952,-0.00202439446190781,0.00352997426272368,-0.0137231564277067,-0.162775556708477,-0.0101423179825231,0.00251269061352377,0.0563778598386588,-0.00555436872463149,-0.129540899889116,-0.139266131575467,-0.0054628131962035,0.00367239397361166,0.189804783267719
5.61,1,0.010620441297647,0.000152592547379986,-0.00560523290709148,-0.00200404878892382,-0.00728375092827133,0.00182093773206783,-0.0147404400769066,-0.160049236528621,-0.00863673818170721,-0.00307219662058372,0.054638304798527,-0.00239061657561978,-0.120069989115065,-0.130598874884284,-0.00589007232886746,0.0065513067008474,0.224728130944751
5.64,1,0.0133467614775028,0.00722271390931934,-0.00741599780266732,-0.00289925840021973,-0.000244148075807978,0.00609352905870744,-0.0120548112430189,-0.162205877864925,-0.00953194779300312,-0.00645975117241941,0.054251737011831,-0.00629698578854742,-0.111097547329122,-0.124352753278197,-0.010549231442203,0.00343841873429568,0.254097109897153
5.67,1,0.0129805393637908,-0.00142419710887987,-0.00859604683573921,-0.00289925840021973,0.000152592547379986,0.00384533219397565,-0.0115258237454349,-0.161066520177821,-0.00936918240913114,-0.0134993540248828,0.0398673462121443,-0.0075787631865393,-0.10549231442203,-0.118401643930377,-0.00641905982645141,0.00259407330545976,0.271787672556739
5.7,1,0.0145369833470667,0.0032247891679637,-0.00927762688070314,-0.00287891272723574,0.000152592547379986,0.00245165359457177,-0.0127465641244748,-0.159967853836685,-0.00859604683573921,-0.0156559953611866,0.0346588539282408,-0.00922676269824315,-0.0998158716594948,-0.114271472314625,-0.010457675913775,0.00259407330545976,0.292387666453037
5.73,1,0.0147099215674306,0.000254320912299977,-0.00906399731437117,-0.00274666585283975,0.000152592547379986,0.00304167811110772,-0.0127872554704428,-0.159601631722973,-0.00892157760348318,-0.02178004292937,0.0338043356629129,-0.0114444410534989,-0.0939563178401033,-0.108584856715598,-0.00857570116275521,0.00259407330545976,0.308328501236
5.76,1,0.0148014770958586,0.000152592547379986,-0.00859604683573921,-0.00255338195949177,0.000152592547379986,0.00185145624154383,-0.0144149093091627,-0.160089927874589,-0.00717184972685934,-0.0242520421969258,0.0298369294310333,-0.00903347880489517,-0.0890631834874518,-0.10371206803593,-0.00854518265327921,0.00234992522965178,0.326792199468978
5.79,1,0.0148014770958586,0.000152592547379986,-0.00860621967223121,-0.00224819686473179,0.000152592547379986,0.00200404878892382,-0.0128279468164108,-0.160415458642333,-0.00790429395428327,-0.021871598457798,0.021688487400942,-0.0054221218502355,-0.0859096041749321,-0.100609352905871,-0.00854518265327921,0.00198370311593982,0.341664886420281
5.82,1,0.0148014770958586,0.000152592547379986,-0.00856552832626321,-0.00185145624154383,0.000152592547379986,0.00173955504013184,-0.0103050833663951,-0.159967853836685,-0.00607318338572344,-0.0234789066235338,0.0195623645741142,-0.00522883795688752,-0.0814335561184525,-0.0961129591764072,-0.00854518265327921,0.00164799951170385,0.354686117130039
5.85,1,0.0147811314228746,0.000152592547379986,-0.00861639250872321,-0.00145471561835587,0.000152592547379986,0.000661234371979939,-0.00953194779300312,-0.160740989410077,-0.00574765261797947,-0.0238756472467218,0.0197556484674622,-0.00509659108249153,-0.0768557796970529,-0.0915250099185156,-0.00854518265327921,0.00137333292641987,0.368816187017426
5.88,1,0.0140792057049267,-0.00135298725343588,-0.00854518265327921,-0.00121056754254789,0.000152592547379986,0.000152592547379986,-0.00989816990671509,-0.160008545182653,-0.00578834396394747,-0.0226854253771579,0.0132246874395988,-0.00348928291675568,-0.0726747438988413,-0.086692912584816,-0.00832138025045523,0.0010681478316599,0.383210750653605
5.91,1,0.0137740206101667,-0.000345876440727968,-0.00406913459679963,-0.000935900957263914,0.000152592547379986,0.000152592547379986,-0.0114444410534989,-0.160374767296365,-0.00513728242845953,-0.0198777225053662,0.0116580706198309,-0.00528987497583951,-0.0708538061667735,-0.0845464440850042,-0.00639871415346741,0.00097659230323191,0.403098645995463
5.94,1,0.0120649840795109,-0.00577817112745547,-0.00730409660125533,0.000620543026011943,0.0075889360230313,-0.0010681478316599,-0.0098167872147791,-0.159967853836685,-0.00615456607765943,-0.0198166854864142,0.00468967762281157,-0.00809757784763126,-0.0694499547308776,-0.0814030376089765,-0.00461846776736758,-0.00500503555406354,0.41651661732841
5.97,1,0.0122074037903989,-0.000590024516535946,-0.00518814661091952,0.00125125888851588,0.000549333170567949,-0.00238044373912778,-0.011037527593819,-0.159560940377005,-0.00473036896877956,-0.0186773277993103,0.00426241849014761,-0.00932849106316314,-0.0683614612262337,-0.0805078279976806,-0.00629698578854742,-0.00135298725343588,0.425417849258909
6,1,0.0122074037903989,0.000152592547379986,-0.0065411338643554,0.000986765139723909,0.000152592547379986,0.000152592547379986,-0.0120548112430189,-0.159805088452813,-0.00530004781233151,-0.0164698222805465,0.00577817112745547,-0.00856552832626321,-0.0673238319040498,-0.0795108900214647,-0.00717184972685934,-0.000305185094759972,0.431928464613788
6.03,1,0.0121158482619709,0.000152592547379986,-0.00691752881455936,0.000813826919359925,0.000152592547379986,0.000152592547379986,-0.010508540096235,-0.160049236528621,-0.00456760358490758,-0.0142012797428307,0.00736513362020732,-0.0086469110181992,-0.0660318816695659,-0.0780765200760928,-0.00700908434298736,-0.000305185094759972,0.438662882371492
6.06,1,0.0119632557145909,0.000152592547379986,-0.00675476343068738,0.000630715862503942,0.000152592547379986,0.000152592547379986,-0.0118106631672109,-0.160456149988301,-0.0043234555090996,-0.0116377249468469,0.0143335266172267,-0.00726340525528733,-0.064912869655446,-0.0767743970051169,-0.0065614795373394,-0.00021362956633198,0.454390087588122
6.09,1,0.0118004903307189,0.000152592547379986,-0.00661234371979939,0.000447604805647959,0.000152592547379986,0.000152592547379986,-0.0101016266365551,-0.159560940377005,-0.00428276416313161,-0.00800602231920326,0.0122379222998749,-0.00455743074841558,-0.0635090182195502,-0.0752382986948251,-0.0065614795373394,0.000152592547379986,0.466851812290821
6.12,1,0.0117496261482589,0.000152592547379986,-0.00660217088330739,0.000233975239315978,0.000152592547379986,0.000152592547379986,-0.00896226894945118,-0.160130619220557,-0.00420138147119561,-0.00840276294239123,0.00305185094759972,-0.00505589973652353,-0.0613625497197384,-0.0730714845220293,-0.0065614795373394,0.000152592547379986,0.476017537970112
6.15,1,0.0117496261482589,0.000152592547379986,-0.00663268939278339,0.000203456729839981,0.000152592547379986,0.000152592547379986,-0.010834070863979,-0.159560940377005,-0.0043234555090996,-0.00686666463209937,0.0010681478316599,-0.00282804854477574,-0.0604469944354584,-0.0721661020742414,-0.0065614795373394,0.000152592547379986,0.483708202358063
6.18,1,0.0116580706198309,0.000152592547379986,-0.00666320790225939,0.00170903653065584,0.0075889360230313,-0.000691752881455936,-0.0102237006744591,-0.160496841334269,-0.00399792474135563,-0.00297046825566373,-0.00121056754254789,0.000946073793755913,-0.0602638833786025,-0.0718100527970214,-0.0065614795373394,-0.00575782545447147,0.494023458560951
6.21,1,0.0114749595629749,0.000152592547379986,-0.0064800968454034,0.00122074037903989,-0.00252286345001577,-0.00151575263730786,-0.00859604683573921,-0.159479557685069,-0.00355031993570767,-0.000579851680043947,-0.00358083844518367,0.0032349620044557,-0.0593585009308145,-0.0707113864558855,-0.0065614795373394,0.00249234494053977,0.497807753735974
6.24,1,0.011230811487167,0.000152592547379986,-0.00658182521032339,0.00254320912299977,0.00320444349497971,-0.00262459181493576,-0.0128279468164108,-0.159642323068941,-0.00269580167037975,0.00292977690969573,-0.00318409782199571,0.00244148075807978,-0.0595619576606545,-0.0707520778018535,-0.00631733146153142,-0.00591041800185146,0.497767062390006
6.27,1,0.011017181920835,0.000152592547379986,-0.00623594876959543,0.00227871537420779,0.000152592547379986,-0.00372325815607166,-0.010752688172043,-0.159154026917325,-0.00452691223893958,0.00843328145186722,-0.00199387595243182,0.0043946653645436,-0.0599790439568265,-0.0709046703492335,-0.00610370189519944,-0.00149540696432386,0.497614469842626
6.3,1,0.010752688172043,0.000152592547379986,-0.00610370189519944,0.0021362956633198,0.000152592547379986,-0.00268562883388775,-0.00997955259865108,-0.159683014414909,-0.00497451704458754,0.00603249203975545,-0.00639871415346741,-0.000600197353027945,-0.0603249203975545,-0.0709860530411695,-0.00610370189519944,-0.00122074037903989,0.500869777520066
6.33,1,0.010549231442203,0.000152592547379986,-0.00618508458713543,0.0021362956633198,0.000152592547379986,-0.00169886369416384,-0.0100202439446191,-0.159967853836685,-0.00635802280749942,-0.0010681478316599,-0.00736513362020732,-0.00263476465142776,-0.0597552415540025,-0.0702230903042695,-0.00610370189519944,-0.00122074037903989,0.503117974384798
6.36,1,0.010528885769219,0.000152592547379986,-0.00612404756818344,0.00200404878892382,0.000152592547379986,-0.000956246630247912,-0.011240984323659,-0.158543656727805,-0.00554419588813949,-0.00708029419843135,-0.00849431847081922,-0.00308236945707572,-0.0595619576606545,-0.0699891150649536,-0.00601214636677145,-0.00122074037903989,0.502680542415642
6.39,1,0.010528885769219,0.000152592547379986,-0.00580868963693147,0.00186162907803583,0.000152592547379986,-0.0010783206681519,-0.011240984323659,-0.159560940377005,-0.00399792474135563,-0.00800602231920326,-0.0165613778089745,-0.0043234555090996,-0.0609149449140904,-0.0713014109724214,-0.00564592425305948,-0.00122074037903989,0.49997456790877
6.42,1,0.010376293221839,0.000152592547379986,-0.00567644276253548,0.00157678965625985,0.000152592547379986,0.000966419466739911,-0.0120548112430189,-0.159642323068941,-0.00403861608732363,-0.0087486393831192,-0.0174057232378104,-0.00376394950203965,-0.0624815617338582,-0.0728171636097293,-0.00564592425305948,-0.000823999755851924,0.499079358297474
6.45,1,0.010376293221839,0.000152592547379986,-0.00561540574358348,0.00138350576291187,0.000152592547379986,0.0010681478316599,-0.0120548112430189,-0.159154026917325,-0.00355031993570767,-0.00551367737866349,-0.0116275521103549,-0.00205491297138381,-0.0640176600441501,-0.0743125705740532,-0.00564592425305948,-0.00076296273689993,0.500411999877926
6.48,1,0.010376293221839,0.000152592547379986,-0.00565609708955148,0.00126143172500788,0.000152592547379986,0.0010681478316599,-0.0114037497075309,-0.159805088452813,-0.00293994974618773,0.000122074037903989,-0.00698873867000336,0.00381481368449965,-0.064709412925606,-0.0750246691284931,-0.00564592425305948,-0.00076296273689993,0.500757876318654
6.51,1,0.010376293221839,0.000152592547379986,-0.00565609708955148,0.00130212307097588,0.000152592547379986,0.0010681478316599,-0.0118513545131789,-0.159520249031037,-0.00289925840021973,0.00389619637643564,-0.00516780093793552,0.00440483820103559,-0.064790795617542,-0.0750653604744611,-0.00564592425305948,-0.00076296273689993,0.500473036896878
6.54,1,0.010376293221839,0.000152592547379986,-0.00558488723410749,0.00122074037903989,0.000152592547379986,0.0010681478316599,-0.0119734285510829,-0.160415458642333,-0.00379446801151565,0.00610370189519944,-0.00317392498550371,0.00289925840021973,-0.065309610278634,-0.075614693645029,-0.00564592425305948,-0.00076296273689993,0.499852493870866
6.57,1,0.010386466058331,0.000152592547379986,-0.00571713410850347,0.00122074037903989,0.000152592547379986,0.0010681478316599,-0.0119734285510829,-0.159479557685069,-0.00411999877925962,0.0065513067008474,0.000478123315123956,0.00445570238349559,-0.06564531388287,-0.075960570085757,-0.00564592425305948,-0.000488296151615955,0.500116987619658
6.6,1,0.010528885769219,0.000152592547379986,-0.00568661559902748,0.00122074037903989,0.000152592547379986,0.0010681478316599,-0.0116885891293069,-0.160171310566525,-0.00420138147119561,0.00668355357524339,0.00393688772240364,0.00191249326049582,-0.06528926460565,-0.075746940519425,-0.00585955381939146,-0.000305185094759972,0.500371308531958
6.63,1,0.010681478316599,0.000152592547379986,-0.00600197353027945,0.00122074037903989,0.000152592547379986,0.0010681478316599,-0.0118513545131789,-0.159438866339101,-0.00334686320586769,0.00739565212968332,-0.00032553076774397,-0.00136316008992787,-0.064973906674398,-0.0755027924436171,-0.00610370189519944,-0.000305185094759972,0.499018321278522
6.66,1,0.010681478316599,0.000152592547379986,-0.00615456607765943,0.00122074037903989,0.000152592547379986,0.0010681478316599,-0.0121361939349549,-0.160293384604429,-0.00407930743329162,0.00635802280749942,0.00248217210404777,-0.00261441897844376,-0.065268918932666,-0.075828323211361,-0.00610370189519944,-0.000305185094759972,0.496230964079714
6.69,1,0.010681478316599,0.000152592547379986,-0.00609352905870744,0.00122074037903989,0.000152592547379986,0.0010681478316599,-0.0128279468164108,-0.159886471144749,-0.00411999877925962,0.00943021942808313,0.00689718314157537,-0.00340790022481969,-0.065309610278634,-0.075838496047853,-0.00610370189519944,-0.000305185094759972,0.495671458072654
6.72,1,0.010661132643615,0.000152592547379986,-0.00614439324116743,0.00122074037903989,0.000152592547379986,0.0010681478316599,-0.0114037497075309,-0.159805088452813,-0.0043641468550676,0.011210465814183,0.0119225643686229,-0.00229906104719179,-0.064973906674398,-0.075512965280109,-0.00610370189519944,-0.000305185094759972,0.497970519119846
6.75,1,0.010661132643615,0.000152592547379986,-0.00610370189519944,0.00122074037903989,0.000152592547379986,0.0010681478316599,-0.0115258237454349,-0.159479557685069,-0.00371308531957966,0.0134891811883908,0.0186264636168503,0.00126143172500788,-0.0639566230251981,-0.0744753359579251,-0.00610370189519944,-0.000305185094759972,0.501063061413414
6.78,1,0.010661132643615,0.000152592547379986,-0.00609352905870744,0.00122074037903989,0.000152592547379986,0.0010681478316599,-0.0114037497075309,-0.159723705760877,-0.00509659108249153,0.0135400453708508,0.0208848333180741,0.00418103579821162,-0.0626341542812382,-0.0731630400504573,-0.00610370189519944,-0.000305185094759972,0.501358073671682
6.81,1,0.010661132643615,0.000152592547379986,-0.00618508458713543,0.00122074037903989,0.000152592547379986,0.0010681478316599,-0.0101423179825231,-0.159683014414909,-0.00562557858007548,0.00903347880489517,0.02193263547675,0.000732444227423933,-0.0610065004425184,-0.0715353862117374,-0.00610370189519944,-0.000305185094759972,0.502446567176326
6.84,1,0.010681478316599,0.000152592547379986,-0.00618508458713543,0.00122074037903989,0.000152592547379986,0.0010681478316599,-0.010752688172043,-0.159479557685069,-0.00530004781233151,0.0086469110181992,0.0180059205908383,-0.00132246874395988,-0.0593788466037985,-0.0699077323730176,-0.00610370189519944,-0.000305185094759972,0.502660196742658
6.87,1,0.010620441297647,0.000152592547379986,-0.00609352905870744,0.00128177739799188,0.000152592547379986,0.0010681478316599,-0.011240984323659,-0.159967853836685,-0.00440483820103559,0.0076499730419833,0.0168258715577665,-0.000284839421775974,-0.0587888220872626,-0.0693075350199896,-0.00610370189519944,-0.00076296273689993,0.500493382569862
6.9,1,0.010528885769219,0.000152592547379986,-0.00597654143904945,0.00137333292641987,0.000152592547379986,0.0010681478316599,-0.010467848750267,-0.159011607206437,-0.00473036896877956,0.00699382508824936,0.0163019704784285,0.000208543148085981,-0.0581072420422987,-0.0684937081006297,-0.00578325754570147,-0.00076296273689993,0.502553381959492
6.93,1,0.010386466058331,0.000152592547379986,-0.00566626992604348,0.00145471561835587,0.000152592547379986,0.0010681478316599,-0.0100202439446191,-0.159967853836685,-0.0043234555090996,0.00409965310627562,0.0168665629037344,-0.000956246630247912,-0.0568661559902748,-0.0671915850296538,-0.00564592425305948,-0.00076296273689993,0.515121921445357
6.96,1,0.010376293221839,0.000152592547379986,-0.00566626992604348,0.00152592547379986,0.000152592547379986,0.0010681478316599,-0.00920641702525915,-0.159764397106845,-0.00452691223893958,0.00115970336008789,0.0135400453708508,-0.00021362956633198,-0.0555436872463149,-0.0658182521032339,-0.00564592425305948,-0.00076296273689993,0.522751548814356
6.99,1,0.0102542191839351,0.000152592547379986,-0.00564592425305948,0.00165817234819585,0.000152592547379986,0.0010681478316599,-0.00961333048493912,-0.159967853836685,-0.00452691223893958,0.00130212307097588,0.0124312061932229,-0.00227871537420779,-0.054312774030783,-0.0644856105227821,-0.00564592425305948,-0.000793481246375927,0.527115695669424
7.02,1,0.0101117994730471,0.000152592547379986,-0.00559506007059949,0.00266528316090375,0.00576799829096347,0.000783308409883928,-0.0100202439446191,-0.159520249031037,-0.00562557858007548,-0.000284839421775974,0.0140690328684347,-0.00255338195949177,-0.0534582557654551,-0.0634683268735822,-0.00564592425305948,-0.00411999877925962,0.529821670176295
7.05,1,0.00987782423373109,0.000152592547379986,-0.00561540574358348,0.00410982594276762,0.00232957955666779,-0.00411999877925962,-0.00961333048493912,-0.159642323068941,-0.00452691223893958,-0.00344859157078768,0.00712098554439934,-0.00289925840021973,-0.0532242805261391,-0.0630410677409182,-0.00564592425305948,-0.00628681295205542,0.533412681457971
7.08,1,0.00973540452284311,0.000152592547379986,-0.00569678843551948,0.00388602353994364,0.000152592547379986,-0.00415051728873562,-0.0087181208736432,-0.159560940377005,-0.00448622089297159,-0.00308236945707572,0.00160730816573585,-0.00152592547379986,-0.0525325276446832,-0.0621662038026063,-0.00564592425305948,-0.00292977690969573,0.532263150934375
7.11,1,0.00953194779300312,0.000152592547379986,-0.0054017761772515,0.00378429517502365,0.000152592547379986,-0.00371308531957966,-0.0086774295276752,-0.159560940377005,-0.00346893724377168,-0.0032654805139317,-0.00317392498550371,-0.00472019613228757,-0.0518102562537512,-0.0612608213548184,-0.00518814661091952,-0.00274666585283975,0.535335347554959
7.14,1,0.00920641702525915,0.000152592547379986,-0.00521866512039552,0.00367239397361166,0.000152592547379986,-0.00304167811110772,-0.00940987375509914,-0.160171310566525,-0.00363170262764367,-0.00357066560869167,-0.00388602353994364,-0.00298064109215573,-0.0518712932727032,-0.0609759819330424,-0.00518814661091952,-0.00274666585283975,0.536098310291859
7.17,1,0.0086977752006592,0.000152592547379986,-0.00502538122704754,0.00366222113711966,0.000152592547379986,-0.00291960407320373,-0.00961333048493912,-0.159967853836685,-0.0032654805139317,-0.00319427065848771,-0.00890123193049918,-0.00290943123671173,-0.0523392437513352,-0.0609658090965504,-0.00482192449720756,-0.00274666585283975,0.53936379080579
7.2,1,0.00814844203009125,0.000152592547379986,-0.00475071464176356,0.00357066560869167,0.000152592547379986,-0.00280770287179174,-0.0098167872147791,-0.159886471144749,-0.00428276416313161,-0.00310271513005971,-0.0133976256599628,-0.00338755455183569,-0.0530615151422671,-0.0611387473169144,-0.00456760358490758,-0.00274666585283975,0.540726950895718
7.23,1,0.00733461511073133,0.000152592547379986,-0.0043234555090996,0.00350962858973968,0.000152592547379986,-0.00285856705425174,-0.00928779971719515,-0.160334075950397,-0.00468967762281157,-0.00316375214901171,-0.0143131809442427,-0.00350962858973968,-0.053844823552151,-0.0610878831344544,-0.00396740623187963,-0.00274666585283975,0.544531591743726
7.26,1,0.00636819564399141,0.000152592547379986,-0.00383515935748365,0.00344859157078768,0.000152592547379986,-0.00262459181493576,-0.010386466058331,-0.160578224026205,-0.00379446801151565,-0.00267545599739575,-0.0124210333567309,-0.00459812209438358,-0.054678996144495,-0.0610065004425184,-0.00344859157078768,-0.00274666585283975,0.548346405428226
7.29,1,0.00530004781233151,0.000152592547379986,-0.0032858261869157,0.00350962858973968,0.000152592547379986,-0.00282804854477574,-0.010752688172043,-0.160130619220557,-0.00367239397361166,-0.00252286345001577,-0.0128686381623788,-0.00265511032441176,-0.0558386995045829,-0.0610878831344544,-0.00286873989074374,-0.00274666585283975,0.547359640288502
7.32,1,0.00407930743329162,0.000152592547379986,-0.00208543148085981,0.00350962858973968,0.000152592547379986,-0.00254320912299977,-0.010345774712363,-0.159235409609261,-0.00464898627684357,-0.00406913459679963,-0.00999989827163508,-0.00361135695465967,-0.0567542547888628,-0.0607521795302184,-0.00204474013489181,-0.00274666585283975,0.550258898688721
7.35,1,0.00290943123671173,0.000152592547379986,-0.00160730816573585,0.00350962858973968,0.000152592547379986,-0.00283822138126774,-0.0119734285510829,-0.160089927874589,-0.00363170262764367,-0.00421155430768761,-0.00246182643106377,-0.00130212307097588,-0.0579343038219347,-0.0607521795302184,-0.00134281441694388,-0.00274666585283975,0.552242601804661
7.38,1,0.00165817234819585,0.000152592547379986,0.000152592547379986,0.00350962858973968,0.000152592547379986,-0.00271614734336375,-0.0117292804752749,-0.160089927874589,-0.00363170262764367,-0.00463881344035157,0.00331634469639169,-0.00138350576291187,-0.0589719331441186,-0.0605385499638864,-0.000579851680043947,-0.00274666585283975,0.553137811415957
7.41,1,0.00053916033407595,0.000152592547379986,0.000152592547379986,0.00350962858973968,0.000152592547379986,-0.00275683868933175,-0.00953194779300312,-0.159967853836685,-0.00269580167037975,-0.00415051728873562,0.00223802402823979,-0.00364187546413566,-0.0585548468479466,-0.0590126244900866,3.05185094759972e-05,-0.00274666585283975,0.552964873195593
7.44,1,-0.000203456729839981,0.000152592547379986,0.000152592547379986,0.00350962858973968,0.000152592547379986,-0.00276701152582375,-0.00810775068412325,-0.160089927874589,-0.00310271513005971,-0.00520849228390352,-0.0114953052359589,-0.00780256558936328,-0.0574460076703187,-0.0570289213741468,0.000152592547379986,-0.00274666585283975,0.560157068595436
7.47,1,-0.0010783206681519,0.000152592547379986,0.000152592547379986,0.00318409782199571,-0.00186162907803583,-0.00267545599739575,-0.00721254107282734,-0.160456149988301,-0.0033061718598997,-0.00554419588813949,-0.0356151005584887,-0.00696839299701936,-0.0565304523860388,-0.0552283293150629,0.000610370189519944,-0.00274666585283975,0.56043173518072
7.5,1,-0.00239061657561978,0.000152592547379986,0.000152592547379986,0.00135298725343588,-0.00562557858007548,0.00193283893347982,-0.010427157404299,-0.160008545182653,-0.00375377666554765,-0.00617491175064343,-0.0589108961251666,-0.0157678965625985,-0.0574663533433027,-0.054831588691875,0.00128177739799188,0.00464898627684357,0.562659586372468
7.53,1,-0.00481175166071556,-0.00136316008992787,0.00021362956633198,0.00171920936714784,0.000152592547379986,0.0010783206681519,-0.0157577237261066,-0.159235409609261,-0.00334686320586769,-0.00734478794722332,-0.04305144403414,-0.0264290292062136,-0.0635802280749942,-0.0585650196844386,0.00266528316090375,-0.000915555284279916,0.564378795739616
7.56,1,-0.00859604683573921,-0.00663268939278339,0.00725323241879533,0.00194301176997182,0.000152592547379986,0.0010681478316599,-0.0134790083518988,-0.159154026917325,-0.00391654204941964,-0.0129296751813308,-0.032125817641733,-0.0288399914548173,-0.0673441775770338,-0.0585141555019786,0.00907417015086317,-0.00122074037903989,0.559638253934345
7.59,1,-0.0101728364919991,-0.000274666585283975,0.00731426943774733,0.00198370311593982,0.000152592547379986,0.0010681478316599,-0.0114444410534989,-0.157526373078606,-0.00371308531957966,-0.0172836491999064,-0.0292367320780053,-0.0269681895402895,-0.0698263496810816,-0.0594500564592425,0.00643940549943541,-0.00122074037903989,0.557023834955901
7.62,1,-0.0137333292641987,-0.00678528194016338,0.00788394828129927,0.00198370311593982,0.000152592547379986,0.0010681478316599,-0.0116478977833389,-0.159154026917325,-0.00371308531957966,-0.0210374258654541,-0.0350861130609048,-0.0177414268420464,-0.0706198309274575,-0.0566728720969268,0.010884935046439,-0.00122074037903989,0.556932279427473
7.65,1,-0.0192063152968942,-0.0128482924893948,0.0154423657948546,0.00206508580787581,0.000152592547379986,0.0010681478316599,-0.0164494766075625,-0.160293384604429,-0.00277718436231574,-0.0211900184128341,-0.0235806349884538,-0.00581886247342346,-0.0726035340433973,-0.0531835891801711,0.0174464145837784,-0.00122074037903989,0.574358348338267
7.68,1,-0.0222785119174779,-0.00601214636677145,0.0182093773206783,0.00225836970122379,0.000152592547379986,0.0010681478316599,-0.0168970814132104,-0.159235409609261,-0.00265511032441176,-0.0241299681590218,0.00261441897844376,0.000152592547379986,-0.0739972126428012,-0.0514948983224993,0.0176091799676504,-0.00131229590746788,0.617745495976643
7.71,1,-0.0255643381043936,-0.00731426943774733,0.0171310566525264,0.00249234494053977,0.000152592547379986,0.0010783206681519,-0.0098167872147791,-0.160049236528621,-0.00363170262764367,-0.0343740145064648,0.000559506007059949,0.000722271390931934,-0.0741701508631652,-0.0483921831924395,0.0188604388561663,-0.00167851802117985,0.660552791934975
7.74,1,-0.0300709046703492,-0.010925626392407,0.0225633513392539,0.00259407330545976,0.000152592547379986,0.0010783206681519,-0.0144962920010987,-0.158625039419741,-0.0032247891679637,-0.0449639372946359,-0.00152592547379986,-0.00450656656595559,-0.0737937559129612,-0.043519394512772,0.0230007833084099,-0.00167851802117985,0.703502507604195
7.77,1,-0.0342926318145288,-0.0123193049918109,0.0253100171920937,0.00259407330545976,0.000152592547379986,0.0010884935046439,-0.0137231564277067,-0.158096051922157,-0.000823999755851924,-0.0490025533819595,0.00485244300668355,-0.010996836247851,-0.0737530645669932,-0.0392366303496404,0.0270800907417015,-0.00167851802117985,0.749961851863155
7.8,1,-0.0401013214514603,-0.0167139703563545,0.0305388551489812,0.00259407330545976,0.000152592547379986,0.0010884935046439,-0.0128279468164108,-0.160537532680237,0.000233975239315978,-0.0461643320006917,0.00466933194982757,-0.0133264158045188,-0.0734987436546932,-0.0331837926369009,0.032400484227017,-0.00167851802117985,0.812412895087537
7.83,1,-0.0459303567613758,-0.0175990071311584,0.0354828536840927,0.00266528316090375,0.000152592547379986,0.0010681478316599,-0.0174667602567624,-0.161636199021373,0.00173955504013184,-0.0370189519943846,0.0290231025116733,-0.0150659708446506,-0.0725221513514613,-0.0263985106967376,0.0365408286792606,-0.00167851802117985,0.868536434013896
7.86,1,-0.0495315408795434,-0.010539058605711,0.0362559892574847,0.00471002329579557,0.00790429395428327,-0.00201422162541581,-0.0192164881333862,-0.160740989410077,0.00312306080304371,-0.0235195979695018,0.0635191910560422,-0.0142928352712587,-0.0707927691478215,-0.0210475987019461,0.0357676931058687,-0.00895209611295918,0.889044872381766
7.89,1,-0.0534582557654551,-0.010874762209947,0.0365001373332926,0.00488296151615955,0.000193283893347982,-0.00524918362987152,-0.00835189875993123,-0.159520249031037,0.00344859157078768,-0.00478123315123956,0.054801070182399,-0.00369273964659566,-0.0667846715699738,-0.0131127862381868,0.0372020630512406,-0.00382498652099165,0.887498601234982
7.92,1,-0.0600299081392865,-0.0200201422162542,0.0442111473942279,0.00634784997100742,0.0075889360230313,-0.00562557858007548,-0.0134790083518988,-0.158502965381837,0.00230923388368379,0.00989816990671509,0.0523087252418592,-0.000305185094759972,-0.0637429934588661,-0.00350962858973968,0.0463779615670237,-0.00972523168635111,0.892707093518886
7.95,1,-0.0616168706320383,-0.00396740623187963,0.043417666147852,0.00893175043997518,0.0097862687053031,-0.00914538000630716,-0.011281675669627,-0.159276100955229,0.00234992522965178,0.0229906104719179,0.118930631427961,-0.0123803420107629,-0.0577715384380627,0.00389619637643564,0.0406201361125523,-0.0121463667714469,0.894639932452366
7.98,1,-0.0628681295205542,-0.00359101128167567,0.0400097659230323,0.0156865138706626,0.0251675974812057,-0.0181788588112023,-0.010752688172043,-0.158869187495549,0.00149540696432386,0.0339976195562609,0.140385143589587,0,-0.0475274920906196,0.0154016744488866,0.0407422101504562,-0.0299895219784132,0.893022451450138
8.01,1,-0.0629800307219662,-4.06913459679963e-05,0.0385652231411685,0.022014018168686,0.0179245378989024,-0.0299895219784132,-0.0149845881527146,-0.161025828831853,0.000803654082867926,0.0405489262571083,0.153050325022126,-0.00419120863470361,-0.043580431531724,0.0194606362091942,0.0386466058331044,-0.032207200333669,0.895463932208218
8.04,1,-0.0630207220679342,0.000152592547379986,0.0386364329966124,0.0262459181493576,0.0161646371857865,-0.0305795464949492,-0.000417086296171962,-0.159642323068941,0.00011190120141199,0.0465508997873877,0.172602516759748,-0.00343841873429568,-0.0345978169092888,0.0284432508316294,0.0386059144871364,-0.032888780378633,0.895036673075554
8.07,1,-0.0630207220679342,0.000152592547379986,0.0385855688141524,0.0370087791578926,0.0394807784254484,-0.0504572690003154,-0.00635802280749942,-0.159927162490717,0.00182093773206783,0.0573544521418907,0.198950163274026,0.00119022186956389,-0.0193690806807662,0.043743196915596,0.0386059144871364,-0.0599078341013825,0.897295042776777
8.1,1,-0.0630207220679342,0.000152592547379986,0.0386771243425804,0.04330576494644,0.0172836491999064,-0.0510676391898353,-0.00318409782199571,-0.162043112481053,0.000315357931251971,0.0684530167546617,0.206264432711773,-0.00338755455183569,-0.0135196996978668,0.0496027507349874,0.0386059144871364,-0.0497756889553514,0.897549363689077
8.13,1,-0.0631733146153142,0.000152592547379986,0.0386160873236284,0.0523087252418592,0.032614113793349,-0.0660217088330739,0.0010478021586759,-0.159194718263293,-0.00155644398327586,0.0810673340047405,0.236396374401074,-0.00333669036937569,0.00238044373912778,0.065655486719362,0.0386059144871364,-0.0667541530604979,0.900753807184057
8.16,1,-0.0631733146153142,0.000152592547379986,0.0386669515060884,0.0623187963499863,0.0302031515447452,-0.0769981994079409,-0.021535894853562,-0.166478469191565,-0.0053814305042675,0.0839869380779443,0.258115380311492,-0.0118818730226549,0.0175277972757144,0.0808842229478846,0.0386059144871364,-0.0777204707988728,0.897610400708029
8.19,1,-0.0631733146153142,0.000152592547379986,0.0386567786695964,0.0726543982258573,0.0375682851649525,-0.0861334065777561,0.00808740501113926,-0.159967853836685,-0.0065614795373394,0.0797753837702567,0.306334625283568,0.00274666585283975,0.0355845820490127,0.0990122175766269,0.0386059144871364,-0.087282937101352,0.892585019480982
8.22,1,-0.0632750429802342,0.000152592547379986,0.0387483341980244,0.0844752342295602,0.0357473474328847,-0.0997446618040508,-0.000661234371979939,-0.167902666300445,-0.00167851802117985,0.0883917762789799,0.348704489272744,-0.00251269061352377,0.0519933673106072,0.115482039857173,0.0386059144871364,-0.0996225877661468,0.887600329599902
8.25,1,-0.0625527715893022,0.00166834518468785,0.0385397910499385,0.097333699555447,0.0441450239570299,-0.113966287219866,0.00910468866033916,-0.159560940377005,-0.00147506129133986,0.107648955758334,0.405229855240537,0.00163274025696585,0.0740429904070152,0.136839910072125,0.0383821120843125,-0.115909298989837,0.881633960997345
8.28,1,-0.0597857600634785,0.00926745404421115,0.033061718598997,0.110802535070854,0.0413932716859442,-0.125665049185664,-0.000417086296171962,-0.178319650868252,-0.00525935646636352,0.144494969532355,0.481053092033652,0.0170089826146224,0.098391674550615,0.158391064180425,0.032288583025605,-0.1272723573514,0.863989176101972
8.31,1,-0.0495824050620034,0.0336313974425489,0.0249844864243497,0.121189001129185,0.0305693736584572,-0.126377147740104,-0.0149438968067466,-0.206600136316009,-0.00940987375509914,0.158330027161473,0.621072013509527,0.0271004364146855,0.131127862381868,0.180964588356171,0.0171412294890184,-0.128523616239916,0.824345632292652
8.34,1,-0.0290434481846573,0.0585294147567166,-0.00307219662058372,0.124835963011567,0.00374360382905566,-0.115634632404553,-0.00564592425305948,-0.229977314574623,-0.0130720948922188,0.133289590136418,0.807606229845068,0.0179906613361003,0.176279997151606,0.205542161320841,-0.00895209611295918,-0.115293842382071,0.719117811619414
8.37,1,0.0114291817987609,0.117369101026439,-0.0400911486149683,0.121402630695517,-0.0173548590553504,-0.0963876257616911,0.0345774712363048,-0.179947304706971,-0.0504674418368074,0.134149194819992,0.700796533097323,0.148452202927742,0.220709860530412,0.209423098442539,-0.0554826502273629,-0.097847427798293,0.460412406791386
8.4,1,0.054058453118483,0.121453494877977,-0.0946073793755913,0.109439374980926,-0.0499079358297474,-0.0680969674774417,0.0278227078056174,-0.160802026429029,-0.0181381674652343,0.196666361481572,0.526393424278492,0.280856756289356,0.259524318165634,0.205516729229611,-0.0953652556942452,-0.0665913876766259,0.21314635659861
8.43,1,0.0811741487879065,0.0766268908759829,-0.0882849614958139,0.0855891598254341,-0.0852280241299682,-0.0376954456211025,-0.107292906481114,-0.137587613554287,-0.0183619698680583,0.141076896471043,0.171915850296538,0.292870876186407,0.281034780927966,0.199942014831996,-0.0889360230313018,-0.0193639942625202,0.087023529770806
8.46,1,0.0942360708436333,0.0311237932472711,-0.075680817082227,0.0625324259163182,-0.0659403261411379,-0.00440483820103559,-0.192826115705842,-0.119886878058209,0.00137333292641987,0.101234982350129,-0.304544206060976,-0.00938952808211514,0.275978881191443,0.181814020203253,-0.075624866481521,-0.00254829554124577,0.0404624571469263
8.49,1,0.0962401196325571,-0.0021668141727958,-0.0587939085055086,0.0560777611621448,-0.00974049094108911,-0.0116021200191249,-0.21693573819188,-0.140232551042207,-0.00625629444257942,0.0740175583157852,-0.729834894863735,-0.308089439578438,0.24354787845495,0.147419660023804,-0.0584480320647806,-0.0399690745770643,0.0142521439252907
8.52,1,0.0918454542680135,-0.0200506607257302,-0.0482294178085676,0.0511134169540493,-0.0237383139540798,-0.0314849289427371,-0.172175257627084,-0.175939207129124,-0.0118513545131789,0.0299996948149052,-1.05737479781487,-0.451907915484074,0.188909573656423,0.0971556749168371,-0.0472935168513037,-0.032959990234077,0.00720236823633534
8.55,1,0.0783867915890988,-0.0491398866746015,-0.0335957925148269,0.0334431999674469,-0.0674408195237078,-0.0177465132602924,-0.123549099195329,-0.200252286345002,-0.0203558458204901,-0.0133416750592568,-1.34241767632069,-0.505528936633401,0.116005940936511,0.0377005320393485,-0.0254676961577197,0.0143131809442427,0.00369273964659566
8.58,1,0.0608437350586464,-0.0599892167933185,-0.0141504155603707,0.0144810327463607,-0.0558386995045829,0.00753807184057131,-0.0694296090578936,-0.229977314574623,-0.0270495722322255,-0.0507115899126153,-1.49216691590116,-0.468682922859381,0.0298623615222633,-0.0307779168065432,-0.00736004720196132,0.0305744600767032,0.00205491297138381
8.61,1,0.0482650227362896,-0.0423189998067161,-0.00634784997100742,0.010671305480107,-0.00271106092511775,0.00294503616443373,-0.0421257159133681,-0.241696422213406,-0.0360220140181687,-0.0682444736065757,-1.56512141280353,-0.417772962635172,-0.0616728212327443,-0.109825942767622,-0.0065004425183874,-0.00454725791192358,0.00171412294890184
8.64,1,0.0388500625629444,-0.0263120415865556,-0.00821456546728924,0.00898261462243517,-0.00736004720196132,-0.00170903653065584,0.0124413790297149,-0.240841903948078,-0.0476190476190476,-0.0512304045737073,-1.6664377778456,-0.386934008809676,-0.160191656239509,-0.198955249692272,-0.0101677500737531,-0.00270597450687175,0.00167851802117985
8.67,1,0.0173701183100884,-0.0589465010528886,0.00287891272723574,0.00808740501113926,-0.000167851802117985,-0.00198370311593982,0.0720745465458134,-0.244911038544877,-0.0483311461734876,0.0115258237454349,-1.42811873734753,-0.37232072918892,-0.251609851374859,-0.268888414156519,0.0138503168838567,-0.00596636860255745,0.00167851802117985
8.7,1,-0.0102186142562131,-0.0794447665842667,0.0379090751874345,0.00796024455498927,0.000152592547379986,-0.00427259132663961,0.163711457665741,-0.236793115024262,-0.0467441836807357,0.0409558397167882,-1.12797936948759,-0.336380097862687,-0.330276395967488,-0.319844152144943,0.0452538631346578,-0.0065614795373394,0.00167851802117985
8.73,1,-0.0260017700735496,-0.0422732220425021,0.0425834935555081,0.00786868902656128,0.000152592547379986,-0.0054526403597115,0.191381572923978,-0.206864630064801,-0.0417391481266722,0.021261228268278,-0.63149408449558,-0.0115054780724509,-0.381730602944019,-0.355515203304137,0.0399029511398663,-0.0065614795373394,0.00167851802117985
8.76,1,-0.0341858170313629,-0.0185399945066683,0.0308135217342652,0.00768049155145929,0.000152592547379986,-0.00594093651132745,0.168024740338349,-0.184667500839259,-0.0270902635781935,-0.00262459181493576,-0.300052898749758,0.2791477197587,-0.408368175298318,-0.373994160791854,0.0300810775068412,-0.00611896114993744,0.00167851802117985
8.79,1,-0.0401318399609363,-0.0123243914100569,0.0310118920458591,0.00586464023763746,-0.00744651631214331,-0.00549333170567949,0.153152053387046,-0.181656341237627,-0.00578834396394747,-0.0308186081525112,-0.0115919471826329,0.368719545070752,-0.41715241960916,-0.376812036500137,0.0311034475742871,2.54320912299977e-05,0.00167851802117985
8.82,1,-0.0425885799737541,-0.00231940672017579,0.0295876949369793,0.00520340586565752,-4.06913459679963e-05,-0.00173955504013184,0.119968260750145,-0.179214860479548,0.00578834396394747,-0.0642007711010061,0.237795139418724,0.257830540889716,-0.409436323129978,-0.366634113589892,0.0277413251136814,-0.00370291248308766,0.00167851802117985
8.85,1,-0.043722851242612,9.15555284279916e-05,0.0267240414644815,0.00534073915829951,0.000152592547379986,-0.00293486332794173,0.0908739483830276,-0.170506912442396,0.000193283893347982,-0.10561947487818,0.403668324839015,0.126107567573066,-0.389706106753746,-0.34575945310831,0.0266630044455295,-0.00411999877925962,0.00170903653065584
8.88,1,-0.0421358887498601,0.00791955320902127,0.0231838943652659,0.0054068625954975,0.000152592547379986,-0.00351471500798568,0.0701823989583015,-0.170140690328684,-0.00886054058453118,-0.123666086814987,0.544124678284046,0.076433606982635,-0.360815251116469,-0.318465732800277,0.022090314442376,-0.00411999877925962,0.00167851802117985
8.91,1,-0.0426699626656901,0.00161239458398185,0.0237942645547858,0.0054221218502355,0.000152592547379986,-0.00376903592028565,0.0502232937609994,-0.172643208105716,-0.0165105136265145,-0.136234626300851,0.658518224636575,0.101575772372611,-0.32448805200354,-0.281609546189764,0.0253456221198157,-0.00411999877925962,0.00167851802117985
8.94,1,-0.0395163833531704,0.0127567369609668,0.021942808313242,0.00549333170567949,0.000152592547379986,-0.00390636921292764,0.0239977212846258,-0.178950366730756,-0.0206813765882341,-0.154433830785038,0.766635130873542,0.194331695506658,-0.281136509292886,-0.241396323536892,0.0185857722708823,-0.00411999877925962,0.00167851802117985
8.97,1,-0.0367798903368226,0.010605182042909,0.0175583157851904,0.00549333170567949,0.000152592547379986,-0.00402844325083163,-0.075614693645029,-0.177566860967844,-0.0354726808476007,-0.169596443576362,0.689357178462071,0.334045431887773,-0.23657948545793,-0.199585965554776,0.0170140690328684,-0.00411999877925962,0.00167851802117985
9,1,-0.0389416180913724,-0.00594602292957345,0.0200099693797622,0.0054068625954975,0.000152592547379986,-0.00409456668802962,-0.354920092369355,-0.168431653798029,-0.075818150374869,-0.146351512192145,0.304701885026602,0.421633554083885,-0.205435346537675,-0.166269926043479,0.0245063631092257,-0.00411999877925962,0.0123243914100569
9.03,1,-0.0483413190099796,-0.0278532263150934,0.0374512975452946,0.0032502212591937,-0.00882493565680919,-0.00299081392864772,-0.282448805200354,-0.140598773155919,-0.0632852158167262,-0.135746330149236,0.00926745404421115,0.353246660766422,-0.20039470605589,-0.151839757479578,0.0428123823765781,0.00211594999033581,0.075787631865393
9.06,1,-0.0444146041240679,0.0151117486088646,0.033178706218655,-0.00123599963377789,-0.0152897732474746,0.0054221218502355,-0.0510167750073753,-0.131076998199408,-0.0336212246060569,-0.0375682851649525,0.136946724855291,-0.186946216213467,-0.19533371990112,-0.150710572628966,0.0241604866684978,0.0114749595629749,0.118116804508601
9.09,1,-0.0381023590807825,0.0206406852422661,0.010422070986053,-0.00784325693533128,-0.0256508072145756,0.0130059714550208,-0.0198878953418582,-0.152236498102766,0.00625629444257942,-0.0425631478825241,0.107725252032024,-0.15012054811243,-0.187114068015585,-0.148818425041454,0.010996836247851,0.0227261167231259,0.182322662027853
9.12,1,-0.0380006307158625,0.00166834518468785,0.0195471053193762,-0.0196946114485102,-0.0393841364787744,0.032751447085991,-0.0208034506261381,-0.169733776869004,-0.00808740501113926,-0.043977172154912,0.0375021617277546,0.021261228268278,-0.183482365387941,-0.145252845851009,0.021993672495702,0.0452436902981658,0.28283537298705
9.15,1,-0.0383159886471145,0.000167851802117985,0.0229448327077039,-0.0269987080497655,-0.0179041922259184,0.0405133213293863,-0.0298572751040173,-0.167699209570605,-0.0138859218115787,-0.0496383556627094,0.0808537044384086,-0.0373902605263426,-0.179896440524511,-0.141346476638081,0.0233008819849239,0.0377361369670705,0.407467879268777
9.18,1,-0.0388195440534684,0.000152592547379986,0.0234941658782718,-0.0318460646382031,-0.0162816248054445,0.0369070507929726,-0.0345774712363048,-0.158075706249173,-0.0100202439446191,-0.0704926704713075,0.0822270373648284,-0.0524002807702872,-0.175745923235776,-0.136692403942991,0.0235755485702078,0.0398571733756523,0.505564541561124
9.21,1,-0.0394451734977264,0.000152592547379986,0.0239366842656738,-0.0366730755536566,-0.0098218736330251,0.043020925524664,-0.0259915972370576,-0.160883409120965,-0.00639871415346741,-0.0727561265907773,0.106824956002482,-0.0497451704458754,-0.168360443942585,-0.128716900133264,0.0239570299386578,0.0411542100283822,0.589831232642598
9.24,1,-0.0419426048565121,-0.00673950417594938,0.0262662638223416,-0.0385753959776605,-0.00714133121738334,0.0372885321614226,-0.032542903937905,-0.160069582201605,-0.00401827041433963,-0.0691244239631336,0.120288705099643,-0.0595466984059165,-0.159911903235979,-0.117770928067873,0.0284890285958434,0.0388195440534684,0.674057232378104
9.27,1,-0.0428785058137761,-0.00162765383871985,0.0288755963825393,-0.0399589017405723,-0.000361135695465967,0.0393281858780684,-0.0258898688721376,-0.163040050457269,-0.00336720887885169,-0.0613320312102624,0.137841934466587,-0.0408744570248522,-0.151682078513952,-0.108600115970336,0.0274819177831355,0.0364391003143406,0.744844915107679
9.3,1,-0.04317860449029,0.000127160456149988,0.0266121402630696,-0.0409812718080182,0.0011037527593819,0.0384533219397565,-0.0242011780144658,-0.161860001424197,-0.00175990071311584,-0.0513067008473973,0.137714774010437,-0.0341247800124109,-0.140120649840795,-0.0967284157841731,0.0263985106967376,0.0344147058524328,0.806899217708874
9.33,1,-0.0468967762281157,-0.010350861130609,0.0303659169286172,-0.0404370250556963,0.000635802280749942,0.0334584592221849,-0.0227362895596179,-0.160883409120965,-0.000457777642139958,-0.0299946083966592,0.134500157678966,-0.0239163385926898,-0.1308328501236,-0.0837173579109063,0.032441175572985,0.0350047303689688,0.850494908495336
9.36,1,-0.0499994913581754,-0.00931831822667114,0.0354370759198787,-0.0377768283130385,0.0138452304656107,0.032176681824193,-0.0235501164789778,-0.161595507675405,-0.000457777642139958,-0.0127363912879828,0.158548743146051,-0.0159713532924385,-0.122007914466791,-0.0717947935422834,0.0352895697907448,0.0257423627430036,0.865138706625568
9.39,1,-0.0530920336517431,-0.0087130344553972,0.0362712485122227,-0.032726014994761,0.0151931313008006,0.022141178624836,-0.0224311044648579,-0.160171310566525,0.000356049277219967,0.00427259132663961,0.162465285195471,-0.011093478194525,-0.112465793837296,-0.0591397849462366,0.0366629027171646,0.0189011302021343,0.862071596423231
9.42,1,-0.0585650196844386,-0.0175227108574684,0.0416679382712282,-0.0283720409761854,0.0157628101443525,0.0185145624154383,-0.0134179713329468,-0.157912940865301,-0.00241096224860378,0.0200557471439762,0.148421684418266,-0.00238553015737378,-0.103589993998026,-0.0448316904202399,0.043946653645436,0.0145675018565427,0.863841669972839
9.45,1,-0.0620899075289163,-0.010640786970631,0.0464389985859757,-0.0211798455763421,0.0246182643106377,0.00569170201727348,-0.032685323648793,-0.156712546159246,-0.0021261228268278,0.0273496709087395,0.202663248593605,-0.00851466414380322,-0.0933459476505834,-0.0310017192093671,0.0450300607318339,0.00172938220363984,0.874919888912626
9.48,1,-0.0630715862503942,-0.0032247891679637,0.0386415194148584,-0.0148116499323506,0.021637623218482,0.00179041922259184,-0.00843328145186722,-0.158421582689901,-0.00450656656595559,0.0393180130415764,0.21650339264097,-0.00367748039185766,-0.0802280749941506,-0.0169225135044404,0.0393637908057904,0.000223802402823979,0.873424481948302
9.51,1,-0.0634784997100742,-0.000996937976215908,0.0407625558234403,-0.00339772738832769,0.0413830988494522,-0.00864182459995321,-0.0130110578732668,-0.159377829320149,-0.00428276416313161,0.0419222591835281,0.242744224372082,-0.00251269061352377,-0.064989165929136,-0.00138859218115787,0.0396435438093204,-0.0238603879919838,0.875509913429161
9.54,1,-0.0634784997100742,0.000147506129133986,0.0388500625629444,0.00633259071626942,0.0262408317311116,-0.02175461083814,-0.00932849106316314,-0.161656544694357,-0.00230923388368379,0.0451572211879838,0.246294544307789,-0.00495417137160354,-0.0524918362987152,0.011017181920835,0.0386059144871364,-0.0263934242784916,0.879421369060335
9.57,1,-0.0633716849269082,0.000152592547379986,0.0386822107608264,0.0138910082298247,0.0280617694631794,-0.0239926348663798,0.00300098676513972,-0.161514124983469,-0.00489313435265155,0.0584683777377646,0.263537502161728,-0.00461846776736758,-0.033117669199703,0.0303608305103712,0.0386059144871364,-0.0273445844904935,0.883546454257841
9.6,1,-0.0633259071626942,0.000152592547379986,0.0386923835973184,0.0286111026337474,0.0501266518143254,-0.0489008250170395,-0.0167139703563545,-0.160761335083061,-0.00399792474135563,0.0738242744224372,0.28563290302235,0.00183619698680583,-0.0127923418886888,0.0506403800571713,0.0386059144871364,-0.0604419080172124,0.889416180913724
9.63,1,-0.0633259071626942,0.000152592547379986,0.0386059144871364,0.0383363343200985,0.0283364360484634,-0.053890601316365,-0.00595110934781945,-0.165013580736717,-0.00623594876959543,0.0822779015472884,0.296258430738243,-0.00568661559902748,0.00267036957914975,0.0661641285439619,0.0386059144871364,-0.0528326263211971,0.89033682261625
9.66,1,-0.0631987467065442,0.000152592547379986,0.0387076428520564,0.0506963306578773,0.043453271075574,-0.0720287687815994,0.00157678965625985,-0.159866125471765,-0.00794498530025127,0.0846176539404482,0.333399456770531,-0.00269580167037975,0.0203202408927681,0.0837783949298583,0.0386059144871364,-0.0731223487044893,0.887447737052522
9.69,1,-0.0615456607765943,0.00623594876959543,0.0373037914161606,0.0644042278308461,0.0444909003977579,-0.086784468113244,-0.00259407330545976,-0.162327951902829,-0.00916572567929116,0.075935137994527,0.386527095349996,-0.00369273964659566,0.0386262601601204,0.100405896176031,0.0352539648630228,-0.087206640827662,0.883958454135767
9.72,1,-0.0601062044129765,0.00465915911333557,0.032868434705649,0.0798415072074547,0.0530615151422671,-0.10434787031668,1.01728364919991e-05,-0.162938322092349,-0.00456760358490758,0.0828374075543484,0.470320749534593,0.00820947904904324,0.0616779076509903,0.122043519394513,0.0347300637836848,-0.106479079561754,0.877859838658813
9.75,1,-0.0511032441175573,0.0298623615222633,0.0269478438673055,0.0968199713126011,0.0564745017853328,-0.122781050040183,-0.00591041800185146,-0.176590268664612,-0.00951160212001912,0.127725048575294,0.603691722362946,0.0201422162541581,0.0922269356364635,0.143559068575091,0.0194606362091942,-0.123310037537767,0.861700287891273
9.78,1,-0.0355845820490127,0.0473291217790256,0.0021973326822718,0.115253151036103,0.0594907478052105,-0.140034180730613,-0.0274564856919055,-0.206661173334961,-0.010447503077283,0.150969979959512,0.834172592343923,0.0490635904009115,0.135410626545,0.171208838160344,-0.00134281441694388,-0.142679118218533,0.839777825251015
9.81,2,-0.0102033550014751,0.0700145471561835,-0.00638854131697541,0.127160456149988,0.0255287331766717,-0.134815515610218,0.0473545538702556,-0.192988881089714,-0.032970163070569,0.180740785953347,0.730333363851843,0.116458632160405,0.184077476322723,0.194484288054038,-0.0193029572435682,-0.135670033875546,0.769692068239387
9.84,2,0.0411287779371522,0.148325042471592,-0.0640532649718721,0.127104505549282,-0.00752789900407931,-0.11017181920835,0.0135400453708508,-0.205013173823257,-0.0389924822738324,0.169321776991078,0.71401104770043,0.276528214362011,0.227988525040437,0.186890265612761,-0.0624052654601683,-0.113238929410688,0.556316822819707
9.87,2,0.0971709341715751,0.17454552852972,-0.0259865108188116,0.113798435417748,-0.0622475864945423,-0.112923571479436,-0.00810775068412325,-0.205643889685761,-0.00926745404421115,0.183858760338145,0.701295002085431,0.251899777214881,0.268771426536861,0.17169713431196,0.0142368846705527,-0.130420850245674,0.309284747866248
9.9,2,0.190237128818629,0.304188156783756,0.0392569760226244,0.0686106957202877,-0.181478316599017,-0.137999613432213,-0.0318918424024171,-0.294595171971801,0.0414339630319122,0.0955788852605772,0.87328714865566,0.0567796868800928,0.315037486902473,0.124891913612273,0.0496434420809554,-0.149698375398012,0.201610360016683
9.93,2,0.33043916135136,0.472655415509507,0.0265154983163956,-0.00450656656595559,-0.273308511612293,-0.13179926959034,-0.0903042695394757,-0.323811558376822,0.000417086296171962,0.182922859380881,1.17865535447249,-0.0463576158940397,0.377661468347219,0.0473036896877956,0.0191859696239102,-0.131656849879452,0.181285032705669
9.96,2,0.48066143782871,0.515966266874193,-0.011154515213477,-0.0931475773389894,-0.310393587043875,-0.0714590899380474,-0.0579343038219347,-0.239824620298878,-0.0209051789910581,0.104352956734926,1.25523138116601,-0.278923917355876,0.453316853338216,-0.0271513005971455,-0.0140436007772047,0.00276192510757775,0.142277291177099
9.99,2,0.621097445600757,0.477935117648854,-0.032537817519659,-0.17256182541378,-0.246920173752047,0.0491195410016175,0.0261950539668976,-0.0940478733685313,-0.00167851802117985,-0.0885850601723279,0.857910906298003,-0.266960661641285,0.517110710979542,-0.103742586545406,-0.0358236437065747,0.157760348317921,0.0577766248563087
10.02,2,0.738558102155624,0.401343831700593,-0.0347809279661448,-0.176417330444248,0.0735699535101372,0.0939919227678254,-0.0117496261482589,-0.086418245999532,0.0043234555090996,-0.065452029989522,0.331492049928282,-0.200730409660126,0.552023885820083,-0.186300241096225,-0.0387991983804844,0.111565497807754,0.0193080436618142
10.05,2,0.814259264910835,0.26418347727897,-0.0309508550269072,-0.10869675791701,0.264544612974436,0.0477004303109836,-0.0690837326171656,-0.0393790500605284,-0.0179754020813623,-0.124886827194027,-0.35010834070864,-0.0533717866552731,0.551052379935097,-0.2629373048087,-0.0319528794213691,0.043193863745028,0.0054272082684815
10.08,2,0.849706513667206,0.128701640878526,-0.0460676900540178,-0.021368043051444,0.304478082623778,0.00527970213934751,-0.0560421562344228,-0.0349030020040488,-0.021596931872514,-0.119947915077161,-0.972223069958597,-0.00771609647918129,0.508850367748039,-0.340611997843359,-0.065513067008474,-0.0289366334014913,0.00242113508509578
10.11,2,0.815413881852677,-0.110487177139602,-0.100207525864437,0.0374919888912626,0.15576647236549,-0.043875443789992,-0.19093396811833,0.0709555345316935,-0.0259915972370576,-0.087333801283812,-1.78297270627969,0.0119378236233609,0.428500218715985,-0.386684774315622,-0.105838190862758,-0.0620288705099643,0.00179041922259184
10.14,2,0.71253598640909,-0.343078910692668,-0.0492873928037355,0.0363221126946827,-0.0360067547634307,-0.0235399436424858,-0.0893683685822118,-0.087333801283812,-0.0103254290393791,-0.180934069846695,-2.6218654947559,-0.139200008138269,0.290246284371471,-0.422055726798303,-0.0510269478438673,-0.00808231859289326,0.00167851802117985
10.17,2,0.573402101708019,-0.462838628294727,-0.0175735750399284,0.0231889807835119,-0.0339721874650309,0.00380464084800765,0.0601519821771905,-0.268674784590187,-0.021617277545498,-0.133416750592568,-2.84548987294127,-0.147684153772596,0.122338531652781,-0.450865199743644,-0.010920539974161,0.00265002390616576,0.00167851802117985
10.2,2,0.41249834691407,-0.532471694082461,0.0225379192480239,0.021454512161626,-0.000528987497583951,-0.0022024191005178,0.0754112369151891,-0.354920092369355,-0.0286772260709454,-0.0579343038219347,-2.62908820866522,-0.0807061983092746,-0.0403149510177923,-0.45272682882168,0.0244504125085198,-0.00683614612262337,0.00167851802117985
10.23,2,0.264748069704276,-0.495310322377188,0.0377157912940865,0.021210364085818,0.000152592547379986,-0.00422172714417961,0.131300800602232,-0.355815301980651,-0.0338653726818649,-0.000925728120771915,-2.19062369660532,-0.0605131178726564,-0.185435549994405,-0.450061545660777,0.0416781111077202,-0.00717184972685934,0.00167851802117985
10.26,2,0.145842870367545,-0.402488275805943,0.0407879879146702,0.0209255246640421,0.000152592547379986,-0.00552893663340149,0.114454583371481,-0.276813053783787,-0.0241808323414818,-0.115838089134393,-1.65428123823766,0.0638498082420321,-0.299813837092196,-0.445544806258329,0.0449995422223579,-0.00717184972685934,0.00167851802117985
10.29,2,0.0619322285632903,-0.285495569729708,0.0376649271116265,0.0205593025503301,0.000152592547379986,-0.00627155369731742,0.101453698334707,-0.218054750206,-0.0153304645934426,-0.0124515518662069,-1.05798516800439,0.116148360647399,-0.380367442854091,-0.442223375143691,0.0388907539089124,-0.00717184972685934,0.00167851802117985
10.32,2,0.0150557980081586,-0.162394075340027,0.0277464115319274,0.0202541174555701,0.000152592547379986,-0.00667338073875139,0.0768761253700369,-0.169062369660532,-0.0154525386313466,-0.0366832483901486,-0.616346730958993,0.00509150466424553,-0.430015971353292,-0.444980213833023,0.0261085848567156,-0.00686666463209937,0.00167851802117985
10.35,2,-0.00358592486342967,-0.065131585640024,0.0165461185542365,0.0199997965432702,0.000152592547379986,-0.00670898566647338,0.0487380596331675,-0.144423759676911,-0.0142317982523067,-0.0303964354380932,-0.253735974201687,-0.0990274768313649,-0.454222235786004,-0.450407422101505,0.0125329345581428,-0.0065614795373394,0.00167851802117985
10.38,2,-0.00694296090578936,-0.0126295765048168,0.00738547929319132,0.0197607348857082,0.000152592547379986,-0.00663777581102939,0.0284330779951374,-0.142694377473271,-0.0135400453708508,-0.0258898688721376,-0.0351929278440708,-0.170786665445926,-0.45209102654093,-0.444919176814071,0.00369782606484166,-0.0065614795373394,0.00167851802117985
10.41,2,-0.00719219539984334,-0.000457777642139958,0.000254320912299977,0.0195776238288522,0.000152592547379986,-0.00678019552191738,0.011302021342611,-0.144688253425703,-0.0133365886410108,-0.0420392468031861,0.0768862982065289,-0.182877081616667,-0.383561713512579,-0.376150802128157,0.0011139255958739,-0.0065614795373394,0.00167851802117985
10.44,2,-0.00744142989389732,0.000152592547379986,0.000152592547379986,0.0194352041179642,0.000152592547379986,-0.00664794864752139,0.00845362712485122,-0.144301685639007,-0.0195420189011302,-0.0661895606351919,0.190252388073367,-0.0747906938891771,-0.314508499404889,-0.306863612781152,0.0010681478316599,-0.0065614795373394,0.00167851802117985
10.47,2,-0.00746177556688131,0.000152592547379986,0.000152592547379986,0.0192520930611082,0.000152592547379986,-0.0065258746096174,-0.00245165359457177,-0.139500106814783,-0.021352783796706,-0.0950092064170252,0.291116061891537,0.0965046133813491,-0.254676961577197,-0.246945605843277,0.0010681478316599,-0.0065614795373394,0.00167851802117985
