time,Mode,Knee_Angle,Knee_Velocity,Knee_Current,Ankle_Angle,Ankle_Velocity,Ankle_Current,Acc_X,Acc_Y,Acc_Z,Gyro_X,Gyro_Z,Gyro_Y,Shank_Angle,Thigh_Angle,Knee_Ref_Torque,Ankle_Ref_Torque,Filtered_Vertical_Load
0,1,0.0283110039572334,-0.00143436994537187,-0.0191656239509262,0.00518814661091952,0.000152592547379986,-0.00429293699962361,-0.00623594876959543,-0.160008545182653,-0.0209662160100101,-0.0248115482039857,0.0136926379182307,-0.00787377544480728,-0.0472935168513037,-0.0755333109530931,-0.0163274025696585,-0.00411999877925962,0.25902076275928
0.03,1,0.0300607318338572,0.0054628131962035,-0.0173650318918424,0.00518814661091952,0.000152592547379986,-0.0043438011820836,-0.00615456607765943,-0.159683014414909,-0.0203965371664581,-0.0236314991709138,0.0197149571214942,-0.00489313435265155,-0.0454217149367758,-0.0753807184057131,-0.0207932777896461,-0.00411999877925962,0.266273995178076
0.06,1,0.0299386577959532,0.000498468988107954,-0.0191147597684662,0.00518814661091952,0.000152592547379986,-0.00407930743329162,-0.00517797377442752,-0.159479557685069,-0.0205593025503301,-0.0207627592801701,0.0123294778283029,-0.00333669036937569,-0.0416984567807042,-0.0715760775577054,-0.0180974761192663,-0.00411999877925962,0.277179275897499
0.09,1,0.0299081392864772,0.000152592547379986,-0.0175888342946664,0.00518814661091952,0.000152592547379986,-0.00422172714417961,-0.0054221218502355,-0.159845779798781,-0.0201116977446821,-0.021708833073926,0.0153101189204586,-0.00381481368449965,-0.0395926796268604,-0.0693787448754336,-0.0178533280434584,-0.00411999877925962,0.288410087384665
0.12,1,0.0299590034689372,0.000152592547379986,-0.0177515996785384,0.00521866512039552,0.000152592547379986,-0.0043132826726076,-0.00481175166071556,-0.159316792301197,-0.0199082410148422,-0.0209153518275501,0.0149438968067466,-0.00265511032441176,-0.0372631000701926,-0.0671610665201778,-0.0178533280434584,-0.00411999877925962,0.304371267840612
0.15,1,0.0300607318338572,0.000152592547379986,-0.0177821181880144,0.00534073915829951,0.000152592547379986,-0.00406913459679963,-0.00379446801151565,-0.160293384604429,-0.0190537227495142,-0.021739351583402,0.0103152562028871,-0.00550350454217149,-0.0346283354187648,-0.0645568203782261,-0.0178533280434584,-0.00411999877925962,0.319335510320343
0.18,1,0.0299793491419212,0.000152592547379986,-0.0177414268420464,0.00534073915829951,0.000152592547379986,-0.00404878892381563,-0.00407930743329162,-0.159967853836685,-0.0189723400575783,-0.0189011302021343,0.00707012136193935,-0.00537125766777551,-0.032308928698589,-0.0622272408215583,-0.0178533280434584,-0.00411999877925962,0.331400494399854
0.21,1,0.0299081392864772,0.000152592547379986,-0.0176905626595864,0.00534073915829951,0.000152592547379986,-0.00422172714417961,-0.00371308531957966,-0.159967853836685,-0.0199896237067782,-0.0161849828587705,0.00688701030508337,-0.00396740623187963,-0.0305795464949492,-0.0603961302529984,-0.0178533280434584,-0.00411999877925962,0.336924344615009
0.24,1,0.0299081392864772,0.000152592547379986,-0.0177617725150304,0.00534073915829951,0.000152592547379986,-0.00407930743329162,-0.00411999877925962,-0.159560940377005,-0.0183619698680583,-0.0146488845484787,0.00845362712485122,-0.00405896176030763,-0.0288908556372773,-0.0586565752128666,-0.0178533280434584,-0.00411999877925962,0.345845922218492
0.27,1,0.0299488306324452,0.000152592547379986,-0.0178126366974904,0.00534073915829951,0.000152592547379986,-0.00404878892381563,-0.00452691223893958,-0.160578224026205,-0.0187688833277383,-0.010559404278695,0.00713115838089134,-0.0032756533504237,-0.0278735719880774,-0.0577511927650787,-0.0178533280434584,-0.00411999877925962,0.352783796706036
0.3,1,0.0301217688528092,0.000152592547379986,-0.0178126366974904,0.00534073915829951,0.000152592547379986,-0.00404878892381563,-0.00375377666554765,-0.159967853836685,-0.0184026612140263,-0.011302021342611,0.00828068890448724,-0.00273649301634775,-0.0266528316090375,-0.0567237362793868,-0.0178533280434584,-0.00411999877925962,0.357626066876227
0.33,1,0.0303353984191412,0.000152592547379986,-0.0177210811690624,0.00534073915829951,0.000152592547379986,-0.00406913459679963,-0.00350962858973968,-0.160374767296365,-0.0174667602567624,-0.010925626392407,0.00735496078371532,-0.0010681478316599,-0.0254626097394737,-0.0557267983031709,-0.0178533280434584,-0.00411999877925962,0.364482558671834
0.36,1,0.0305795464949492,0.000152592547379986,-0.0180466119368063,0.00534073915829951,0.000152592547379986,-0.00404878892381563,-0.00391654204941964,-0.160374767296365,-0.0180364391003143,-0.00782291126234728,0.00590024516535946,-0.00185145624154383,-0.0244249804172898,-0.0549231442203029,-0.0182195501571703,-0.00411999877925962,0.371318704794458
0.39,1,0.0308033488977732,0.000152592547379986,-0.0183517970315663,0.00534073915829951,0.000152592547379986,-0.00406913459679963,-0.00403861608732363,-0.159927162490717,-0.0184026612140263,-0.00689718314157537,0.00376394950203965,-0.00149540696432386,-0.0239265114291818,-0.054607786289051,-0.0183111056855983,-0.00411999877925962,0.375448876410209
0.42,1,0.0308236945707572,0.000152592547379986,-0.0182602415031383,0.00534073915829951,0.000152592547379986,-0.00425224565365561,-0.00306202378409172,-0.160374767296365,-0.0164494766075625,-0.00587989949237546,0.00132246874395988,0.00184128340505183,-0.0231330301828059,-0.053875342061627,-0.0183111056855983,-0.00411999877925962,0.377747937457401
0.45,1,0.0308338674072492,0.000152592547379986,-0.0182500686666463,0.00534073915829951,0.000152592547379986,-0.00428276416313161,-0.00302133243812372,-0.160252693258461,-0.0174667602567624,-0.00703960285246335,-5.08641824599953e-05,0.00142419710887987,-0.0222785119174779,-0.0530716879787591,-0.0183111056855983,-0.00411999877925962,0.382040874457025
0.48,1,0.0309762871181372,0.000152592547379986,-0.0183212785220903,0.00534073915829951,0.000152592547379986,-0.00418103579821162,-0.00298064109215573,-0.160578224026205,-0.0174260689107944,-0.00703960285246335,-0.00116987619657989,0.000498468988107954,-0.021495203507594,-0.0523494165878272,-0.0183111056855983,-0.00411999877925962,0.382783491520941
0.51,1,0.0309762871181372,0.000152592547379986,-0.0182500686666463,0.00530004781233151,0.000152592547379986,-0.00428276416313161,-0.00261441897844376,-0.160822372102013,-0.0175481429486984,-0.00714133121738334,-0.00585955381939146,0.00126143172500788,-0.0210781172114221,-0.0519425031281472,-0.0183111056855983,-0.00411999877925962,0.381644133833837
0.54,1,0.0310576698100731,0.000152592547379986,-0.0182500686666463,0.00534073915829951,0.000152592547379986,-0.00409965310627562,-0.00363170262764367,-0.160130619220557,-0.0176702169866024,-0.00687683746859137,-0.0132857244585508,-0.000335703604235969,-0.0210475987019461,-0.0520137129835912,-0.0183111056855983,-0.00411999877925962,0.382742800174973
0.57,1,0.0311288796655171,0.000152592547379986,-0.0183212785220903,0.00534073915829951,0.000152592547379986,-0.00414034445224362,-0.00424207281716361,-0.160374767296365,-0.0166122419914345,-0.00703960285246335,-0.0139876501764987,-0.00125125888851588,-0.022044536678162,-0.0530309966327911,-0.0183111056855983,-0.00411999877925962,0.382986948250781
0.6,1,0.0311288796655171,0.000152592547379986,-0.0182602415031383,0.00534073915829951,0.000152592547379986,-0.00407930743329162,-0.00452691223893958,-0.160252693258461,-0.0171412294890184,-0.00643940549943541,-0.0165512049724825,-0.000244148075807978,-0.0232754498936939,-0.054322946867275,-0.0183111056855983,-0.00411999877925962,0.383912676371553
0.63,1,0.0312000895209611,0.000152592547379986,-0.0182093773206783,0.00534073915829951,0.000152592547379986,-0.00422172714417961,-0.00367239397361166,-0.159764397106845,-0.0177922910245064,-0.00584938098289946,-0.0186773277993103,-0.000640888698995941,-0.0242215236874498,-0.0553097120069989,-0.0183111056855983,-0.00411999877925962,0.382529170608641
0.66,1,0.0312814722128971,0.000152592547379986,-0.0181686859747103,0.00534073915829951,0.000152592547379986,-0.00427259132663961,-0.00444552954700359,-0.159560940377005,-0.0168156987212745,-0.00549333170567949,-0.0171615751620024,-0.00226854253771579,-0.0249946592608417,-0.0561438845993428,-0.0184942167424543,-0.00411999877925962,0.383342997528001
0.69,1,0.0313526820683411,0.000152592547379986,-0.0187892290007223,0.00534073915829951,0.000152592547379986,-0.00408948026978362,-0.00505589973652353,-0.159560940377005,-0.0165308592994985,-0.00331634469639169,-0.0175684886216824,-0.00139367859940387,-0.0261747082939136,-0.0574256619973347,-0.0187688833277383,-0.00411999877925962,0.385682749921161
0.72,1,0.0314340647602771,0.000152592547379986,-0.0187281919817703,0.00531022064882351,0.000152592547379986,-0.00421155430768761,-0.00570696127201147,-0.160374767296365,-0.0171819208349864,-0.00115970336008789,-0.0162155013682465,-0.00272632017985575,-0.0277616707866654,-0.0591143528550066,-0.0187688833277383,-0.00411999877925962,0.382702108829005
0.75,1,0.0315052746157211,0.000152592547379986,-0.0188197475101983,0.00518814661091952,0.000152592547379986,-0.00422172714417961,-0.00574765261797947,-0.159967853836685,-0.0175481429486984,-0.00161748100222785,-0.0125024160486668,-0.0010783206681519,-0.0290841395306253,-0.0605080314544104,-0.0187688833277383,-0.00411999877925962,0.383444725892921
0.78,1,0.0315866573076571,0.000152592547379986,-0.0187383648182623,0.00508641824599953,0.000152592547379986,-0.0043031098361156,-0.00582903530991546,-0.159967853836685,-0.0162053285317545,-0.000376394950203965,-0.0128279468164108,-0.00272632017985575,-0.0303252255826492,-0.0618508458713543,-0.0187688833277383,-0.00408948026978362,0.3856318857387
0.81,1,0.0317697683645131,0.000152592547379986,-0.0187587104912463,0.00364187546413566,-0.00728375092827133,-0.00261441897844376,-0.00586972665588346,-0.159967853836685,-0.0164901679535305,-0.000579851680043947,-0.0122786136458429,-0.00273649301634775,-0.0312814722128971,-0.0629495122124902,-0.0187688833277383,0.00187180191452783,0.383312479018525
0.84,1,0.0319833979308451,0.000152592547379986,-0.0186264636168503,0.00361135695465967,-2.03456729839981e-05,-0.00177007354960784,-0.00737530645669932,-0.159967853836685,-0.0165308592994985,-0.000712098554439934,-0.0165410321359905,-0.00138350576291187,-0.032959990234077,-0.064872178309478,-0.0187688833277383,-0.00268562883388775,0.383638009786269
0.87,1,0.032227546006653,0.000152592547379986,-0.0190740684224982,0.00300098676513972,-7.12098554439934e-05,0.000691752881455936,-0.00513728242845953,-0.159560940377005,-0.0171412294890184,-0.000986765139723909,-0.0123396506647949,-0.000528987497583951,-0.0337432986439609,-0.0658691162856939,-0.0192978708253222,-0.00172938220363984,0.386374502802616
0.9,1,0.032359792881049,0.000152592547379986,-0.0193080436618142,0.00320444349497971,0.000152592547379986,0.0010783206681519,-0.00684631895911537,-0.160496841334269,-0.0157984150720745,0.000895209611295918,-0.011088391776279,0.000956246630247912,-0.0345164342173528,-0.0667846715699738,-0.0193792535172582,-0.00228888821069979,0.387707144383068
0.93,1,0.032522558264921,0.000152592547379986,-0.0193182164983062,0.00320444349497971,0.000152592547379986,0.0010884935046439,-0.00660217088330739,-0.161269976907661,-0.0160425631478825,0.00252286345001577,-0.0132958972950428,0.00369273964659566,-0.0358083844518367,-0.0682393871883297,-0.0193792535172582,-0.00228888821069979,0.38837855159154
0.96,1,0.032654805139317,0.000152592547379986,-0.0191757967874182,0.0032146163314717,0.000152592547379986,0.0010681478316599,-0.00468967762281157,-0.161961729789117,-0.0160832544938505,0.0032654805139317,-0.0247505111850337,0.00739565212968332,-0.0360118411816767,-0.0685140537736137,-0.0193792535172582,-0.00228888821069979,0.387574897508672
0.99,1,0.032654805139317,0.000152592547379986,-0.0192164881333862,0.00341807306131169,0.000152592547379986,0.0010783206681519,-0.00249234494053977,-0.162531408632669,-0.0182398958301543,-0.00924710837122715,-0.0471307514674317,0.0130314035462508,-0.0357880387788527,-0.0683105970437737,-0.0193792535172582,-0.00250251777703177,0.38929410687582
1.02,1,0.032369965717541,0.000152592547379986,-0.0192063152968942,0.00362152979115167,0.000152592547379986,-0.000986765139723909,-0.000417086296171962,-0.162856939400413,-0.0191757967874182,-0.0274361400189215,-0.0986053041169469,0.0129093295083468,-0.0357066560869167,-0.0680359304584897,-0.0193792535172582,-0.00274666585283975,0.372987049979146
1.05,1,0.0291146580401013,-0.00746686198512731,-0.0173141677093824,0.00152592547379986,-0.0076194545325073,0.00124108605202389,0.00076296273689993,-0.167414370148829,-0.0157577237261066,-0.0339772738832769,-0.141209143345439,0.00511693675547553,-0.0398876918851283,-0.0689209672332936,-0.0141300698873867,0.00404878892381563,0.327728100426242
1.08,1,0.0233670054221218,-0.0137028107547227,-0.010661132643615,0.00137333292641987,0.000132246874395988,0.0011393576871039,0.00255338195949177,-0.157648447116509,-0.0144556006551307,-0.0370596433403526,-0.19429100416069,0.0284839421775974,-0.0487278867966755,-0.0719931638538774,-0.00769066438795129,-0.000671407208471938,0.241330200099694
1.11,1,0.0152999460839666,-0.0140995513779107,-0.00281787570828374,0.00150557980081586,0.000152592547379986,0.0010681478316599,0.0178533280434584,-0.156916002889086,-0.0256864121422976,-0.0197963398134302,-0.185705130161443,0.0995208594012268,-0.0610268461155024,-0.076225063834549,-0.00237027090263578,-0.00076296273689993,0.160690125227617
1.14,1,0.00315357931251971,-0.0250862147892697,0.00421155430768761,0.00161748100222785,0.000152592547379986,0.0010681478316599,-0.0176702169866024,-0.141005686615599,-0.0359406313262327,-0.0423698639891761,-0.065248573259682,0.287402976571958,-0.0645873388877021,-0.0676188441623178,0.00902330596840317,-0.00076296273689993,0.102267525254067
1.17,1,-0.00373343099256366,-0.00932849106316314,0.010874762209947,0.00169886369416384,0.000152592547379986,0.0010681478316599,-0.0632852158167262,-0.158625039419741,0.00857570116275521,-0.0359101128167567,-0.0473545538702556,0.138940600807723,-0.0682699056978057,-0.0643228451389101,0.00843328145186722,-0.000854518265327921,0.0970183416241951
1.2,1,-0.00742617063915932,-0.000284839421775974,0.00563575141656748,0.00183111056855983,0.000152592547379986,0.0010681478316599,-0.0258898688721376,-0.157322916348766,-0.0161239458398185,-0.0278227078056174,-0.0286263618884854,-0.0480768252611876,-0.0777713349813328,-0.0701010162663656,0.00462864060385957,-0.00122074037903989,0.124047568183437
1.23,1,-0.0100100711081271,0.000152592547379986,0.00527970213934751,0.00174972787662384,0.000152592547379986,0.0011393576871039,-0.0165308592994985,-0.159967853836685,-0.010630614134139,-0.0297555467390973,-0.021902116967274,-0.0499588000122074,-0.0823898027487004,-0.0721355835647654,0.00595110934781945,-0.0010681478316599,0.170588295134332
1.26,1,-0.0116580706198309,0.000152592547379986,0.0065004425183874,-0.00065106153548794,-0.00767031871496729,0.0043743196915596,-0.0159204891099785,-0.161392050945565,-0.0130720948922188,-0.0284127323221534,-0.02223782057151,-0.021963153986226,-0.0846278267769402,-0.0727866451002533,0.00696839299701936,0.00606301054923144,0.215023244931384
1.29,1,-0.0114647867264829,0.00410982594276762,0.00372325815607166,-0.00338755455183569,-0.0123193049918109,0.00377412233853165,-0.0203965371664581,-0.158543656727805,-0.0140893785414187,-0.0284737693411054,-0.0283008311207414,-0.0272123376160975,-0.086723431094292,-0.0750450148014771,0.0043336283455916,0.00963367615792311,0.247474593340861
1.32,1,-0.0125329345581428,0.00275683868933175,0.00851466414380322,-0.00901313313191117,-0.0182195501571703,0.0135909095533107,-0.0186875006358023,-0.158787804803613,-0.0140079958494827,-0.0382702108829005,-0.0274157943459375,-0.0145166376740827,-0.0898668375703197,-0.0771304462823369,0.00742617063915932,0.02223782057151,0.276874090802739
1.35,1,-0.0156763410341706,-0.00551367737866349,0.00795515813674327,-0.0124617247026989,-0.00838241726940723,0.0193182164983062,-0.0136824650817387,-0.161554816329437,-0.0140079958494827,-0.0415255185603402,-0.00167851802117985,-0.0101626636555071,-0.0901211584826197,-0.0742006693726412,0.0114444410534989,0.0177617725150304,0.309844253873307
1.38,1,-0.0167546617023225,-0.000600197353027945,0.0114342682170069,-0.0124006876837469,0.000142419710887987,0.0151270078636026,-0.0211289813938821,-0.157892595192317,-0.0122989593188269,-0.0480869980976796,0.0170700196335744,-0.011179947304707,-0.0913927630441196,-0.0744244717754652,0.010681478316599,0.011108737449263,0.348094119083224
1.41,1,-0.0178736737164424,0.000152592547379986,0.010579749951679,-0.0143030081077507,-0.00753807184057131,0.0133772799869788,-0.0199896237067782,-0.158706422111677,-0.0101830093284911,-0.0470086774295277,0.0362356435845007,-0.010823898027487,-0.0938444166386914,-0.075757113355917,0.010834070863979,0.0178838465529344,0.391593167923012
1.44,1,-0.0187688833277383,0.000152592547379986,0.011230811487167,-0.0152083905555386,1.01728364919991e-05,0.0159001434369945,-0.0150252794986826,-0.161595507675405,-0.00879950356557919,-0.0447096163823359,0.0589108961251666,-0.00467950478631957,-0.0902534053570157,-0.0712607196264534,0.011383404034547,0.0139367859940387,0.436119673248492
1.47,1,-0.0197353027944782,0.000152592547379986,0.0116784162928149,-0.0154728843043306,0.000152592547379986,0.0143233537807347,-0.0172633035269224,-0.160374767296365,-0.00928779971719515,-0.0470900601214637,0.0698772138635416,-0.00420138147119561,-0.086855677968688,-0.0669067456078778,0.0119530828780989,0.0137333292641987,0.478876105024364
1.5,1,-0.0203761914934741,0.000152592547379986,0.0122582679728589,-0.0156051311787266,0.000152592547379986,0.0138655761385947,-0.0156763410341706,-0.160537532680237,-0.00957263913897112,-0.0511083305358033,0.0802636799218726,-0.00883002207505519,-0.0831425926491084,-0.0625222530798262,0.0123599963377789,0.0137333292641987,0.515589871923989
1.53,1,-0.0208644876450901,0.000152592547379986,0.0125837987406028,-0.0157170323801386,0.000152592547379986,0.0136112552262947,-0.0137638477736747,-0.160456149988301,-0.00945056510106713,-0.0535192927844071,0.0838852097130243,-0.00891140476699118,-0.0781680756045208,-0.0570899583930987,0.0127872554704428,0.0137333292641987,0.557227291685741
1.56,1,-0.021383302306182,0.000152592547379986,0.0128788109988708,-0.0153304645934426,0.0021769870092878,0.0137231564277067,-0.0118920458591469,-0.161066520177821,-0.00770083722444329,-0.0534277372559791,0.0890733563239438,-0.010671305480107,-0.0720847193823054,-0.0504369233273314,0.0130314035462508,0.0137333292641987,0.603086438591673
1.59,1,-0.021841079948322,0.000152592547379986,0.0132145146031068,-0.0131941689301228,0.00596128218431145,0.0076092816960153,-0.0142521439252907,-0.160578224026205,-0.00550350454217149,-0.0504470961638234,0.0932950834681234,-0.0132958972950428,-0.0668253629159418,-0.0447808262377799,0.0132755516220588,0.00613422040467544,0.642821537929421
1.62,1,-0.0223598946094139,0.000152592547379986,0.0133772799869788,-0.010884935046439,0.011169774468215,0.00634784997100742,-0.00684631895911537,-0.161188594215725,-0.00468967762281157,-0.0420036418754641,0.10722169662567,-0.00769066438795129,-0.0598467970824305,-0.0372224087242246,0.0135807367168188,0.00466933194982757,0.665089877010407
1.65,1,-0.0228583635975219,0.000152592547379986,0.0137435021006907,-0.00596128218431145,0.0160425631478825,-0.00169886369416384,-0.0102643920204271,-0.159520249031037,-0.00350962858973968,-0.032766706340729,0.109551276182338,-0.00614439324116743,-0.0525732189906512,-0.0294808801538133,0.0137943662831507,-0.00518814661091952,0.671478418327382
1.68,1,-0.0233263140761539,0.000152592547379986,0.0140690328684347,-0.0010884935046439,0.0180262662638223,-0.00340790022481969,-0.00464898627684357,-0.159154026917325,-0.00615456607765943,-0.0304371267840612,0.11337626270333,-0.00367239397361166,-0.0443942584510839,-0.0208644876450901,0.0141911069063387,-0.011281675669627,0.670664591408022
1.71,1,-0.0236823633533738,0.000152592547379986,0.0142724895982747,0.00531022064882351,0.0187790561642303,-0.00995920692566708,-0.00953194779300312,-0.159601631722973,-0.00595110934781945,-0.032888780378633,0.109215572578102,-0.00114953052359589,-0.0372122358877326,-0.0133162429680268,0.0141911069063387,-0.0180974761192663,0.680735699535101
1.74,1,-0.0239163385926898,0.000152592547379986,0.0145166376740827,0.00840276294239123,0.00768049155145929,-0.0141707612333547,-0.00879950356557919,-0.159520249031037,-0.00517797377442752,-0.0385347046316925,0.100049846898811,-0.00902330596840317,-0.0331837926369009,-0.00903347880489517,0.0147607857498906,-0.0130720948922188,0.714540035198014
1.77,1,-0.0242825607064018,0.000152592547379986,0.0146794030579546,0.0129195023448388,0.0205186112043621,-0.0140690328684347,0.00129195023448388,-0.157811212500381,-0.00440483820103559,-0.032685323648793,0.118717001861629,-0.00861639250872321,-0.0255846837773776,-0.00115970336008789,0.0148014770958586,-0.021637623218482,0.774671671702221
1.8,1,-0.0244758445997497,0.000152592547379986,0.0146895758944466,0.0222886847539699,0.0301115960163172,-0.0302641885636972,-0.0097760958688111,-0.161310668253629,-0.000620543026011943,-0.0187383648182623,0.12518692587054,-0.00949125644703513,-0.0176905626595864,0.00682597328613137,0.0148014770958586,-0.0404777164016643,0.837377035838903
1.83,1,-0.0245674001281777,0.000152592547379986,0.0146997487309386,0.0260221157465336,0.00857570116275521,-0.0342214219590848,-5.08641824599953e-05,-0.162002421135085,0.000966419466739911,0.00961333048493912,0.115319274473301,-0.00852483698029522,-0.0143335266172267,0.0102338735109511,0.0148014770958586,-0.0289620654927213,0.888434502192246
1.86,1,-0.0245674001281777,0.000152592547379986,0.0148014770958586,0.0339874467197689,0.033000681580045,-0.0394197414064964,0.00137333292641987,-0.159967853836685,-0.000457777642139958,0.0353200883002208,0.129490035706656,-0.00393688772240364,-0.00207525864436781,0.0225836970122379,0.0148014770958586,-0.0519730216376232,0.909237952818384
1.89,1,-0.0245674001281777,0.000152592547379986,0.0147913042593666,0.0398266548661763,0.011200292977691,-0.0496434420809554,-0.0075787631865393,-0.162002421135085,-0.00188197475101983,0.0586565752128666,0.110314238919238,-0.010773033845027,-0.00160730816573585,0.0229906104719179,0.0148014770958586,-0.0450351471500799,0.910611285744804
1.92,1,-0.0245674001281777,0.000152592547379986,0.0146488845484787,0.0425326293730481,0.0140486871954507,-0.0404878892381563,0.00686666463209937,-0.156916002889086,-0.00411999877925962,0.0670288196457818,0.125329345581428,-0.00508641824599953,0.00784325693533128,0.032634459466333,0.0148625141148106,-0.0443128757591479,0.906867681915749
1.95,1,-0.0246487828201137,0.000152592547379986,0.0149032054607786,0.0483311461734876,0.0167444888658305,-0.054760378836431,-0.00143436994537187,-0.162938322092349,-0.00530004781233151,0.0738446200954212,0.136692403942991,-0.0130415763827428,0.0144657734916227,0.0393281858780684,0.0152592547379986,-0.0554724773908709,0.910621458581296
1.98,1,-0.0247199926755577,0.000152592547379986,0.0152287362285226,0.054689168980987,0.0250455234433017,-0.0623289691864783,0.00918607135227515,-0.157322916348766,-0.00680562761314737,0.0858587399924721,0.169123406679484,-0.0043539740185756,0.0248827580594297,0.0498468988107954,0.0152592547379986,-0.0628579566840622,0.910570594398836
2.01,1,-0.0247708568580177,0.000152592547379986,0.0151575263730786,0.0625019074068422,0.0225531785027619,-0.0723695588040813,0.000356049277219967,-0.160781680756045,-0.00603249203975545,0.0893988870916878,0.186722413810643,-0.010773033845027,0.0342621133050528,0.0592669454023865,0.0152592547379986,-0.0727154352448093,0.914029358806116
2.04,1,-0.0248725852229377,0.000152592547379986,0.0153304645934426,0.0715964232306894,0.032848089032665,-0.0821354818364004,0.00955229346598712,-0.159520249031037,-0.00582903530991546,0.106295968504898,0.218390453810236,-0.0199285866878262,0.0460117394533118,0.0711284727520575,0.0152592547379986,-0.0831222469761244,0.912564470351268
2.07,1,-0.0248725852229377,0.000152592547379986,0.0150557980081586,0.0813725190995005,0.0297453739026053,-0.0918505406862595,0.00178024638609984,-0.163426618243965,-0.00623594876959543,0.133620207322408,0.248013753674937,-0.0153202917569506,0.0555538600828069,0.0806909390545366,0.0152592547379986,-0.0928576514989675,0.915005951109348
2.1,1,-0.0248725852229377,0.000152592547379986,0.0152490819015066,0.0918301950132756,0.0359101128167567,-0.10345774712363,0.0133772799869788,-0.160171310566525,-0.010589922788171,0.139693390708131,0.290576901557461,-0.00578834396394747,0.0692770165105136,0.0944242683187353,0.0152592547379986,-0.103722240872422,0.914497309284748
2.13,1,-0.0246793013295897,0.000366222113711966,0.0154423657948546,0.103823969237342,0.0357066560869167,-0.116845199947101,0.00829086174097924,-0.165827407656077,-0.00912503433332316,0.134118676310516,0.316181931007823,-0.00816878770307525,0.0850245674001282,0.10996836247851,0.0152592547379986,-0.118076113162633,0.913001902320424
2.16,1,-0.02208522802413,0.00795515813674327,0.0118208360037029,0.115003916542049,0.0400097659230323,-0.12513606168808,0.0196437472660502,-0.162165186518957,-0.010874762209947,0.173182368439792,0.359487695954263,-0.0174362417472864,0.104047771640166,0.126377147740104,0.00973540452284311,-0.126987517929624,0.902035584582049
2.19,1,-0.021210364085818,0.0010579749951679,0.011281675669627,0.124332407605213,0.0210170801924701,-0.127974283069348,-0.000783308409883928,-0.189794610431227,-0.0127872554704428,0.232194992929879,0.442284412162643,0.0022176783552558,0.127658925138096,0.149082918790246,0.0125837987406028,-0.126550085960468,0.886633910133163
2.22,1,-0.0151778720460626,0.011383404034547,0.00963367615792311,0.130619220557268,0.0197149571214942,-0.126997690766116,-0.000783308409883928,-0.198543249814346,-0.0252794986826177,0.240475681834366,0.595751823480941,0.0412813704845322,0.159276100955229,0.174687948240608,0.00530004781233151,-0.130486973682872,0.836420789208655
2.25,2,0.00695822016052736,0.0582700074261706,-0.00967436750389111,0.130954924161504,-0.00667338073875139,-0.11281675669627,0.0285551520330414,-0.192480239265114,-0.0394400870794804,0.250465407269509,0.594815922523677,0.110843226416822,0.194921720023194,0.188075401064079,-0.0251574246447137,-0.111992756940418,0.674886318552202
2.28,2,0.043733024079104,0.104312265388958,-0.0588295134332306,0.125868505915504,-0.0263781650237536,-0.102277698090559,0.021312092450738,-0.195084485407066,-0.0264595477156896,0.263273008412936,0.606392610451572,0.162521235796177,0.232347585477259,0.188695944090091,-0.0552588478245389,-0.109480066326894,0.396822005879899
2.31,2,0.087242245755384,0.1336303801589,-0.0180873032827743,0.098228909166743,-0.115125990579953,-0.109958189642018,-0.00786360260831528,-0.229102450636311,-0.00534073915829951,0.202134261096021,0.576067384868923,0.0557980081586149,0.266741945656707,0.179581082593259,0.0305388551489812,-0.133152256843776,0.189682709229815
2.34,2,0.179509872737815,0.304137292601296,0.0535905026398511,0.0310271513005971,-0.26054668823308,-0.0920845159255755,-0.0465610726238797,-0.308613340657776,-0.0186875006358023,0.124342580441705,0.791609444461399,-0.114342682170069,0.305958230333364,0.126550085960468,0.0453606779178238,-0.021251055431786,0.109937843969034
2.37,2,0.310983611560411,0.445061596524959,-0.00379446801151565,-0.0179448835718863,-0.118025248980173,0.00637836848048341,0.0153711559394106,-0.26405631682282,0.00898261462243517,-0.00725323241879533,1.27309996846421,-0.184626809493291,0.369436730043438,0.0585345011749626,-0.00643940549943541,0.0683004242072817,0.0802026429029206
2.4,2,0.43336283455916,0.419426048565121,-0.0132755516220588,-0.0170801924700664,0.0296029541917173,0.0333567308572649,-0.121514531896929,-0.0952279224016032,0.021596931872514,0.00675476343068738,0.865515101575772,-0.405519781080559,0.43804233934548,0.00482192449720756,-0.0144352549821467,0.0395112969349244,0.021942808313242
2.43,2,0.541154210028382,0.369172236294646,-0.0166529333374025,0.0032654805139317,0.0808842229478846,0.0293181147699413,-0.043020925524664,-0.166152938423821,-0.00407930743329162,-0.133945738090152,0.479232154301584,-0.15068005411949,0.475793735567288,-0.065106153548794,-0.0190435499130222,0.0204575741854101,0.00580868963693147
2.46,2,0.621326334421827,0.277331868444879,-0.0162358470412305,0.0270088808862575,0.0820642719809565,0.0196539201025422,-0.0858689128289641,-0.0785037792087568,-0.00359101128167567,-0.120802433342489,-0.02162745038199,0.0277006337677135,0.489811904253263,-0.131300800602232,-0.0166224148279265,0.00836207159642323,0.00247199926755577
2.49,2,0.676330861334066,0.192083498641926,-0.0399995930865403,0.0445570238349559,0.054150008646911,0.0119632557145909,-0.0484735658843755,-0.0810266426587725,-0.00900296029541917,-0.129734183782464,-0.525660980051068,0.103681549526454,0.471399070202745,-0.204707988728497,-0.0589719331441186,-0.00926745404421115,0.00180059205908383
2.52,2,0.669087801751763,-0.0205796482233141,-0.0946582435580513,0.0470391959390037,-0.00206508580787581,-0.00566626992604348,-0.204931791131321,0.0585446740114546,-0.00961333048493912,-0.166926073997213,-1.39101331624297,0.10701823989583,0.417238888719342,-0.251604764956613,-0.098096662292347,-0.0179448835718863,0.00167851802117985
2.55,2,0.602303130181789,-0.221940773745944,-0.0519526759646392,0.0399995930865403,-0.0239366842656738,-0.0100405896176031,-0.0586464023763746,-0.145725882747887,-0.00391654204941964,-0.145746228420871,-2.11063976968698,0.0498977629932554,0.305012156539608,-0.297067171239357,-0.054445020905179,-0.0076499730419833,0.00167851802117985
2.58,2,0.496180099897254,-0.355947548855047,-0.0263781650237536,0.0348724834945728,-0.0150964893541266,-0.00850449130731122,-0.0356557919044567,-0.206844284391817,-0.0127058727785068,-0.130497146519364,-2.4804834131901,-0.100761945453251,0.167241431928465,-0.328674174219998,-0.0164901679535305,-0.00798567664621926,0.00167851802117985
2.61,2,0.376639098279773,-0.398693807794427,0.00493382569861955,0.0335703604235969,-0.000823999755851924,-0.00890123193049918,0.054516230760623,-0.342712688578956,-0.0224311044648579,-0.208766950488805,-2.63867102064069,-0.197454756309702,0.00825017039501124,-0.368236335337382,0.00860621967223121,-0.010915453555915,0.00167851802117985
2.64,2,0.255297504603208,-0.402274646239611,0.0225938698487299,0.0335703604235969,0.000152592547379986,-0.00995920692566708,0.0508133182775353,-0.338724936674093,-0.0316680399995931,-0.206122013000885,-2.27706737469609,-0.0581072420422987,-0.135654774620808,-0.390881069368572,0.0273954486729535,-0.0114444410534989,0.00167851802117985
2.67,2,0.153447065645314,-0.340108442437005,0.0308949044262012,0.0334279407127089,0.000152592547379986,-0.011118910285755,0.087394838302764,-0.30975269834488,-0.0239773756116418,-0.231452375865963,-1.847427798293,0.00907417015086317,-0.25983458967864,-0.41321044546851,0.0332550024923449,-0.0114444410534989,0.00167851802117985
2.7,2,0.0775373597420169,-0.254992319508449,0.0303760897651092,0.0333363851842809,0.000152592547379986,-0.0114647867264829,0.0924405652027955,-0.249407432274341,-0.0208848333180741,-0.166631061738945,-1.32035279396954,-0.0511286762087873,-0.354889573859879,-0.432335378073468,0.0310780154830571,-0.0114444410534989,0.00135298725343588
2.73,2,0.0289315469832453,-0.164484593239133,0.0245775729646697,0.033163446963917,0.000152592547379986,-0.011383404034547,0.0640380057171341,-0.190893276772362,-0.0234483881140578,-0.179692983794671,-0.898637857193721,-0.216600034587644,-0.420341603849401,-0.449191768140711,0.0238044373912778,-0.0114444410534989,0.00151575263730786
2.76,2,0.00560523290709148,-0.0786258532466608,0.0163070568966745,0.033051545762505,0.000152592547379986,-0.0114749595629749,0.0506098615476953,-0.161961729789117,-0.032441175572985,-0.15734326202175,-0.506688639993489,-0.255043183690909,-0.460717591886146,-0.466251614937793,0.0133162429680268,-0.0114444410534989,0.00164799951170385
2.79,2,-0.00130212307097588,-0.0242418693604338,0.00799584948271126,0.032888780378633,0.000152592547379986,-0.0114647867264829,0.0313628549048331,-0.146987314472894,-0.0374055197810806,-0.118950977100945,-0.266599525945819,-0.24156417533901,-0.482985930967132,-0.481490524002808,0.00462864060385957,-0.0114444410534989,0.00167851802117985
2.82,2,-0.00289925840021973,-0.00497451704458754,0.00175990071311584,0.032878607542141,0.000152592547379986,-0.0115258237454349,0.0128889838353628,-0.138686279895423,-0.0391552476577044,-0.0941597745699433,-0.14681437625253,-0.201411989705089,-0.470391959390037,-0.467228207241025,0.00146488845484787,-0.0114444410534989,0.00167851802117985
2.85,2,-0.00311288796655171,-4.06913459679963e-05,0.000152592547379986,0.032644632302825,0.000152592547379986,-0.0115563422549109,0.0119530828780989,-0.138849045279295,-0.0391959390036724,-0.0644652648497981,-0.0600197353027945,-0.140608945992411,-0.402661214026307,-0.399304177983947,0.000610370189519944,-0.0114444410534989,0.00167851802117985
2.88,2,-0.00342824589780368,0.000152592547379986,0.000152592547379986,0.032502212591937,0.000152592547379986,-0.0116784162928149,0.0152897732474746,-0.137058626056703,-0.0349233476770328,-0.0397452721742403,0.0391145563117364,-0.0730613116855373,-0.343404441460412,-0.339752393159785,0.000610370189519944,-0.0114444410534989,0.00167851802117985
2.91,2,-0.00460829493087558,-0.0021769870092878,0.000152592547379986,0.032502212591937,0.000152592547379986,-0.011261329996643,0.0209051789910581,-0.140191859696239,-0.0288196457818333,-0.0155034028138066,0.147058524328338,-0.0487380596331675,-0.287575914792322,-0.282743817458622,0.00076296273689993,-0.0114444410534989,0.00167851802117985
2.94,2,-0.00682597328613137,-0.00591041800185146,0.000152592547379986,0.032502212591937,0.000152592547379986,-0.0115766879278949,0.0257067578152816,-0.152114424064862,-0.0225531785027619,0.00246182643106377,0.264676859848832,-0.0634581540370902,-0.242408520767846,-0.235338399405906,0.00204474013489181,-0.0114444410534989,0.00167851802117985
2.97,2,-0.00916572567929116,-0.00696839299701936,0.00118004903307189,0.032492039755445,0.000152592547379986,-0.0114444410534989,0.0207017222612181,-0.167617826878669,-0.0203558458204901,0.0265511032441176,0.372661519211402,-0.0587074393953266,-0.183070365510015,-0.1736808374279,0.0021871598457798,-0.0114444410534989,0.00167851802117985
3,2,-0.0138045391196427,-0.0138655761385947,0.00316375214901171,0.0315256202887051,-0.00550350454217149,-0.0116682434563229,-0.269631031220435,-0.177994120100508,-0.0157577237261066,0.0234178696045818,0.187078463087863,0.0368867051199886,-0.161473433637501,-0.147445092115034,0.00346893724377168,-0.00995920692566708,0.00489313435265155
3.03,2,-0.0354116438286487,-0.0689107943968017,0.00931831822667114,0.0245979186376537,-0.032268237352621,-0.00662251655629139,-0.10910367137669,-0.208838160344249,-0.0163680939156265,-0.0639159316792301,0.064841659800002,0.242998545284382,-0.156814274524166,-0.121189001129185,0.0146997487309386,-0.0021566413363038,0.0880967640207119
3.06,2,-0.0533667002370271,-0.0592567725658946,0.0173853775648264,-0.000376394950203965,-0.0969878231147191,0.010752688172043,-0.102918586789555,-0.122287667470321,-0.0199489323608102,0.00965402183090711,0.0641702525915301,-0.021708833073926,-0.153131707714062,-0.0995412050742108,0.0174871059297464,0.0238451287372458,0.172846664835556
3.09,2,-0.0628579566840622,-0.032186854660685,0.0258796960356456,-0.032217373170161,-0.10645873388877,0.0370392976673686,-0.0841598762983083,-0.110894090599282,-0.0177922910245064,-0.0305795464949492,0.191656239509262,-0.187882117170731,-0.145237586596271,-0.0821558275093845,0.0366323842076886,0.0552995391705069,0.217668182419304
3.12,2,-0.0533667002370271,0.0314035462508011,0.0296334727011933,-0.0499893185216834,-0.04315317239906,0.0503860591448714,-0.0704468927070935,-0.171768344167404,0.00564592425305948,-0.000885036774803919,0.312824894965463,-0.246599729402549,-0.129734183782464,-0.076153853979105,0.0191452782779422,0.0450860113325399,0.29937640512304
3.15,2,-0.054577267779575,-0.000284839421775974,0.0249641407513657,-0.065004425183874,-0.0580970692058067,0.0472935168513037,-0.0442009745577359,-0.163223161514125,0.0135807367168188,-0.0145166376740827,0.237271238339386,-0.0674764244514298,-0.115838089134393,-0.0610370189519944,0.0315154474522131,0.0509557379884233,0.419883826207261
3.18,2,-0.0570594398836227,-0.00730409660125533,0.0372936185796686,-0.08661152989288,-0.0707927691478215,0.0688904487238177,-0.0690226955982137,-0.159357483647165,0.0021871598457798,-0.0202846359650461,0.27800327565335,0.00683614612262337,-0.123091321553189,-0.06579790643025,0.0383719392478205,0.0694397818943856,0.54826502273629
3.21,2,-0.0573544521418907,-5.08641824599953e-05,0.0349233476770328,-0.108096560563982,-0.0710674357331054,0.0751976073488571,-0.0561642302723268,-0.159642323068941,0.00316375214901171,-0.00053916033407595,0.266172266813156,-0.0639667958616901,-0.114871669667653,-0.0572934151229387,0.0349233476770328,0.0768862982065289,0.643615019175797
3.24,2,-0.0586565752128666,-0.00149540696432386,0.0377310505488245,-0.127140110477004,-0.0606707968382824,0.0787072359385968,-0.0594602292957345,-0.156346324045534,0.00291960407320373,0.00127160456149988,0.272723573514003,-0.0451063570055239,-0.115064953561001,-0.0562049216182948,0.0369680878119246,0.0789819025238807,0.708894110944955
3.27,2,-0.0591753898739586,0.000122074037903989,0.0361847794020407,-0.143080945259967,-0.0485854670857875,0.0782799768059328,-0.0483108005005036,-0.159194718263293,0.00296029541917173,-0.00241096224860378,0.280719422996714,-0.0502538122704754,-0.113294880011394,-0.053905860571103,0.0361644337290567,0.0790327667063407,0.755068615782138
3.3,2,-0.0597348958810185,0.000152592547379986,0.0362865077669607,-0.15383363343201,-0.0336008789330729,0.0727052624083173,-0.0494501581876075,-0.156183558661662,0.00377412233853165,0.0143843907996867,0.275337992492447,-0.0307016205328532,-0.119327372051149,-0.0593585009308145,0.0363678904588967,0.0742108422091332,0.801477095858638
3.33,2,-0.0603045747245705,0.000152592547379986,0.0367442854091006,-0.159998372346161,-0.0121870581174149,0.0666931160415459,-0.0392366303496404,-0.165217037466557,0.00479140598773156,0.00838241726940723,0.284330779951374,-0.0184331797235023,-0.11205379395937,-0.0515254168319753,0.0367748039185766,0.0667643258969899,0.849960834579506
3.36,2,-0.0606809696747744,0.000152592547379986,0.0370087791578926,-0.160456149988301,0.000122074037903989,0.0576494644001587,-0.043997517827896,-0.159560940377005,0.00287891272723574,7.12098554439934e-05,0.276690979745883,-0.0171208838160344,-0.10823898027487,-0.0473443810337636,0.0370799890133366,0.0581377605517747,0.899502548295541
3.39,2,-0.0616372163050223,-0.00135298725343588,0.0373851741080966,-0.158228298796553,0.00993886125268309,0.0531530706706951,-0.0413525803399762,-0.157322916348766,0.00507624540950753,0.00584938098289946,0.266080711284727,-0.0157577237261066,-0.10991749829605,-0.0480768252611876,0.0374563839635406,0.0533565274005351,0.928189947202979
3.42,2,-0.0632241787977742,-0.00352997426272368,0.0421053702403841,-0.15190079449853,0.0260221157465336,0.0466424553158157,-0.0350047303689688,-0.157363607694734,0.00511693675547553,0.0238044373912778,0.266599525945819,-0.0125227617216508,-0.102532019002859,-0.0390942106387524,0.0410372224087242,0.0426343577379681,0.944242683187353
3.45,2,-0.0639362773522141,-0.00312306080304371,0.0393587043875444,-0.139276304411959,0.0450860113325399,0.0338145084994049,-0.0369579149754326,-0.15418968270923,0.00308236945707572,0.0374869024730166,0.273588264615823,0.000803654082867926,-0.0984628844060589,-0.0342519404685609,0.0406811731315043,0.0274666585283975,0.945677053132725
3.48,2,-0.0639261045157221,-7.12098554439934e-05,0.0394095685700044,-0.125431073946348,0.0448316904202399,0.0251675974812057,-0.0383007293923765,-0.155044200974558,0.00133264158045188,0.0470900601214637,0.275683868933175,0.0065716523738314,-0.0994598223822749,-0.0353302611367128,0.0393383587145604,0.0211798455763421,0.941536708680481
3.51,2,-0.0638650674967701,0.000152592547379986,0.0390586057110304,-0.113559373760186,0.0395723339538764,0.021688487400942,-0.0304879909665212,-0.155491805780206,7.12098554439934e-05,0.0350352488784448,0.264987131361838,0.0120039470605589,-0.097898291980753,-0.0338195949176509,0.0392162846766564,0.0199997965432702,0.939547919146296
3.54,2,-0.0637836848048341,0.000152592547379986,0.0391755933306884,-0.100192266609699,0.0489516891994995,0.0177617725150304,-0.0272326832890815,-0.157567064424573,0.000925728120771915,0.0261543626209296,0.261177404095584,0.00289925840021973,-0.0906399731437117,-0.0265816217535936,0.0392162846766564,0.0116173792738629,0.938535721915342
3.57,2,-0.0637633391318501,0.000152592547379986,0.0389823094373404,-0.0852890611489202,0.0459100110883918,0.00516780093793552,-0.032766706340729,-0.156468398083438,0.0021871598457798,0.0183721427045503,0.243079927976318,0.00450656656595559,-0.08732362844732,-0.0233670054221218,0.0388500625629444,0.00400809757784763,0.940224412773013
3.6,2,-0.0636005737479781,0.000152592547379986,0.0385652231411685,-0.0751060518204291,0.0353607796461888,0.00645975117241941,-0.0201523890906501,-0.158502965381837,0.000885036774803919,0.0174158960743024,0.228308969389935,0.00490330718914355,-0.0834884690898363,-0.0196742657755262,0.0386059144871364,0.0100202439446191,0.942838831751457
3.63,2,-0.0634784997100742,0.000152592547379986,0.0386872971790724,-0.0618101545253863,0.0471714428133997,0.000986765139723909,-0.0202337717825861,-0.158584348073773,0.000966419466739911,0.0164087852615945,0.225633513392539,0.00265511032441176,-0.0728273364462213,-0.00917589851578316,0.0386059144871364,-0.00189214758751183,0.945504114912361
3.66,2,-0.0634174626911222,0.000152592547379986,0.0387178156885484,-0.0493077384767195,0.0396435438093204,-0.00299081392864772,-0.0232449313842179,-0.159154026917325,0.00161748100222785,0.0161849828587705,0.214819788201544,0.00380464084800765,-0.0684326710816777,-0.00482192449720756,0.0386059144871364,-0.00338755455183569,0.946256904812769
3.69,2,-0.0633259071626942,0.000152592547379986,0.0386567786695964,-0.0380972726625365,0.0392162846766564,-0.00268562883388775,-0.0165308592994985,-0.159031952879421,0.000152592547379986,0.0174057232378104,0.212683492538224,0.00266528316090375,-0.0621255124566383,0.00129195023448388,0.0386059144871364,-0.00617491175064343,0.944232510350861
3.72,2,-0.0632038331247902,0.000152592547379986,0.0386771243425804,-0.0259407330545976,0.0399385560675883,-0.0065411338643554,-0.0181585131382183,-0.158462274035869,0.00133264158045188,0.0185654265978983,0.210455641346477,0.000356049277219967,-0.0549434898932869,0.00837224443291523,0.0386059144871364,-0.011312194179103,0.945819472843613
3.75,2,-0.0631733146153142,0.000152592547379986,0.0385855688141524,-0.0156153040152186,0.032695496485285,-0.00985747856074709,-0.0167343160293385,-0.159560940377005,0.00076296273689993,0.021200191249326,0.205867692088585,-0.00208543148085981,-0.0497756889553514,0.0134383170059308,0.0386059144871364,-0.0116072064373709,0.944018880784529
3.78,2,-0.0630207220679342,0.000152592547379986,0.0386771243425804,-0.00635802280749942,0.0311593981749931,-0.011240984323659,-0.0114444410534989,-0.159560940377005,0.00137333292641987,0.0279753003529974,0.210394604327525,-0.00406913459679963,-0.0413525803399762,0.021769870092878,0.0386059144871364,-0.0132552059490748,0.944201991841385
3.81,2,-0.0630207220679342,0.000152592547379986,0.0386567786695964,0.00517797377442752,0.0399283832310963,-0.0158187607450585,-0.00920641702525915,-0.156712546159246,0.000152592547379986,0.0375072481460006,0.224789167963703,-0.00485244300668355,-0.0312407808669291,0.0318714967294331,0.0386059144871364,-0.0226650797041739,0.944273201696829
3.84,2,-0.0630207220679342,0.000152592547379986,0.0386771243425804,0.0153101189204586,0.0300810775068412,-0.021281573941262,-0.0156356496882026,-0.161310668253629,0.00133264158045188,0.04366181422366,0.231691437523525,-0.00747194840337331,-0.0257627084159876,0.0372936185796686,0.0386059144871364,-0.0224972279020559,0.938744265063428
3.87,2,-0.0630715862503942,0.000152592547379986,0.0386364329966124,0.0258390046896776,0.0396028524633524,-0.0249844864243497,-0.00135298725343588,-0.158096051922157,0.000722271390931934,0.0529597867773471,0.263883378602456,-0.0022278511917478,-0.0134179713329468,0.0497146519363994,0.0386059144871364,-0.0309457686086612,0.940753400270598
3.9,2,-0.0632852158167262,0.000152592547379986,0.0386567786695964,0.0410270495722322,0.0510269478438673,-0.0391043834752444,-0.00818913337605925,-0.159967853836685,-0.000742617063915932,0.0693482263659576,0.292153691213721,0.00374360382905566,0.00188197475101983,0.065309610278634,0.0386059144871364,-0.0474359365621916,0.940417696666362
3.93,2,-0.0633259071626942,0.000152592547379986,0.0386669515060884,0.0531835891801711,0.0375479394919685,-0.0489618620359915,-0.00188197475101983,-0.161676890367341,-1.01728364919991e-05,0.0834782962533443,0.305754773603524,-0.00777204707988728,0.011291848506119,0.0748110395621611,0.0386059144871364,-0.0487482324696595,0.938088117109694
3.96,2,-0.0633259071626942,0.000152592547379986,0.0386872971790724,0.0668863999348938,0.0478021586759036,-0.0626443271177302,0.00296029541917173,-0.156916002889086,-0.00224819686473179,0.0944242683187353,0.338908047730949,-0.00357066560869167,0.0291248308765933,0.0926643676056195,0.0386059144871364,-0.0637735119683421,0.938393302204454
3.99,2,-0.0633259071626942,0.000152592547379986,0.0387178156885484,0.0812911364075645,0.0476495661285236,-0.075624866481521,0.00666320790225939,-0.158096051922157,-0.00196335744295582,0.124261197749769,0.360230313018179,-0.000356049277219967,0.0500300098676514,0.113559373760186,0.0386059144871364,-0.0767438784956409,0.936979277932066
4.02,2,-0.0633259071626942,0.000152592547379986,0.0386160873236284,0.0963265887427391,0.0507827997680593,-0.0909248125654876,0.00926745404421115,-0.161717581713309,-0.00237027090263578,0.131738232571388,0.389782403027436,-0.00332651753288369,0.0692464980010376,0.132775861893572,0.0386059144871364,-0.0928169601529995,0.935799228898994
4.05,2,-0.0623187963499863,0.00404878892381563,0.0382498652099165,0.110568559831538,0.043905962299468,-0.10533972187465,0.011139255958739,-0.161107211523789,-0.0087181208736432,0.139856156092003,0.405601163772495,0.0227464623961099,0.086937060660624,0.149438968067466,0.0369884334849086,-0.106397696869818,0.931017995747754
4.08,2,-0.0619729199092583,0.000803654082867926,0.0347097181107008,0.122857346313873,0.0358490757978047,-0.114240953805149,0.0114240953805149,-0.168350271106093,-0.00912503433332316,0.142022970264799,0.391959390036724,0.0233263140761539,0.10859502955209,0.17078157902768,0.0369884334849086,-0.117323323262225,0.914741457360556
4.11,2,-0.0611285744804224,0.00402844325083163,0.0359406313262327,0.129957986185288,0.0177210811690624,-0.117191076387829,0.0120751569160029,-0.175267799920652,-0.00175990071311584,0.20034384187343,0.406079287087619,0.0442009745577359,0.131605985696992,0.192978708253222,0.0350149032054608,-0.117913347778761,0.88733583585111
4.14,2,-0.0580055136773787,0.011108737449263,0.0360627053641367,0.131361837621184,-0.00350962858973968,-0.115085299233985,0.00226854253771579,-0.199601224809514,-0.0223090304269539,0.245022939746289,0.464196701966409,0.0846888637958922,0.157475508896146,0.215704824976348,0.0397350993377483,-0.117099520859401,0.781955422630492
4.17,2,-0.0372020630512406,0.0675578071433658,0.054709514653971,0.123350728883735,-0.0392366303496404,-0.119576606545203,-0.0140079958494827,-0.23927528712831,-0.0459913937803278,0.243273211869666,0.594821008941923,0.229824722027243,0.189316487116103,0.226716920478937,0.0632903022349722,-0.127745394248278,0.553519292784407
4.2,2,0.0288705099642933,0.219773959573148,0.0802535070853806,0.0937528611102634,-0.122216457614877,-0.128045492924792,-0.0530716879787591,-0.308084353160192,-0.0314645832697531,0.139550970997243,0.827021088290048,0.244443088066246,0.231442203029471,0.202653075757113,0.087008270516068,-0.138604897203487,0.394268623920408
4.23,2,0.154148991363262,0.401888078452915,0.0690328684347057,0.0316171758171331,-0.222998748741111,-0.119174779503769,-0.0887579983926918,-0.332295704011149,0.00336720887885169,0.111891028575498,1.10881883195491,0.264544612974436,0.295846430860317,0.140578427482935,0.0688599302143417,-0.121219519638661,0.318013041576383
4.26,3,0.309457686086612,0.49921160517187,0.0339976195562609,-0.0574053163243507,-0.309081291136408,-0.0674459059419538,-0.021657968891466,-0.292458876308481,0.021312092450738,0.0415967284157842,1.09900204474013,0.064912869655446,0.36741233558153,0.0580462050233467,0.0301522873622852,-0.0615253151036103,0.173752047283344
4.29,3,0.455997395753858,0.507756787825149,0.0152083905555386,-0.149733980325734,-0.307860550757368,0.033071891435489,0.000396740623187963,-0.245623137099317,0.0163070568966745,0.0450351471500799,0.907559434797205,-0.189397869808039,0.428072959583321,-0.0277209794406975,-0.010467848750267,0.0854721722057761,0.0487584053061515
4.32,3,0.582471185440636,0.438917203283792,-0.0170801924700664,-0.176513972390922,5.59506007059949e-05,0.101372315642771,0.0558386995045829,-0.20110680461033,0.0054221218502355,-0.10478021586759,0.628686381623788,-0.241365805027416,0.475203711050752,-0.107048758405306,-0.0298521886857713,0.124322234768721,0.011215552232429
4.35,3,0.666086814986623,0.291858678955453,-0.022268339080986,-0.121300902330597,0.231177709280679,0.054821415855383,-0.00949125644703513,-0.0853399253313802,0.00202439446190781,-0.158574175237281,0.10711996826075,-0.176753034048484,0.496200445570238,-0.169672739850052,-0.0227362895596179,0.0555233415733309,0.00354014709921567
4.38,3,0.709845271156957,0.147521388388724,-0.011312194179103,-0.0358338165430667,0.303888058107242,0.021454512161626,-0.0210679443749301,-0.065808079266742,-0.0075787631865393,-0.232571387880083,-0.361980040894803,-0.188151697337769,0.487233090202541,-0.222373119296854,0.00115970336008789,0.032436089154739,0.00203456729839981
4.41,3,0.734371979939166,0.0752891628772851,0.0299132257047233,0.0486719361959695,0.276370535396385,0.0192927844070762,-0.0389110995818964,-0.0715659047212134,-0.0188706116926583,-0.26311532944731,-0.834238715781121,-0.185857722708823,0.449303669342123,-0.284839421775974,0.0406506546220283,0.043453271075574,0.00170395011240984
4.44,3,0.768389945168411,0.115431175674713,0.0361339152195807,0.128533789076408,0.281624805444502,0.0230109561449019,0.143589587084567,-0.264849798069196,-0.0357575202693767,-0.211010060935291,-0.750343333231605,-0.181157872249519,0.396328623310038,-0.371868037965026,0.0309661142816452,0.00128177739799188,0.00167851802117985
4.47,3,0.789147618030335,0.0802687663401186,0.0400097659230323,0.207007049775689,0.258674886318552,0.0010935799228899,0.0449130731121759,-0.117058829513433,-0.0389517909278644,-0.12589902442498,-0.837417727184871,-0.0884273812067019,0.353373821222571,-0.435529648731956,0.0444552954700359,-0.0381786553544725,0.00167851802117985
4.5,3,0.80924405652028,0.0742718792280852,0.0471816156498917,0.259417503382468,0.150980152796004,-0.0268461155023855,0.118808557390057,-0.164728741314941,-0.0335601875871049,-0.142170476393933,-0.667744987334819,-0.131758578244372,0.307626575518052,-0.501368246508174,0.0479089734590696,-0.0334889777316609,0.00167851802117985
4.53,3,0.831675160985137,0.0820388398897265,0.0502843307799514,0.270622882778405,0.0136977243364767,-0.0132145146031068,0.148024943795078,-0.155959756258838,-0.0347809279661448,-0.076423434146143,-0.573458052308725,-0.13449507126072,0.268125451419619,-0.56333099358094,0.0497502568641214,0.00892666402172918,0.00167851802117985
4.56,3,0.859274066387931,0.0996531062756228,0.0444247769605599,0.269402142399365,0.0010630614134139,0.00784834335357728,0.13001902320424,-0.108269498784346,-0.0364492731508326,-0.0549892676575009,-0.403698843348491,-0.0928983428449354,0.2403688670512,-0.618686483352153,0.04325490076398,0.0207118950977101,0.00167851802117985
4.59,3,0.887473169143752,0.100431328267261,0.0413220618305002,0.272326832890815,0.00963367615792311,0.0134230577511928,0.119418927579577,-0.0996225877661468,-0.0420443332214321,0.0235908078249458,-0.275399029511399,-0.0611031423891924,0.220664082766198,-0.666610716065961,0.0415865555792922,0.0138503168838567,0.00167851802117985
4.62,3,0.915148370820236,0.097593106885993,0.0425275429548021,0.273369548631245,0.00309254229356772,0.0145369833470667,0.117770928067873,-0.107109795424258,-0.0380565813165685,0.108005005035554,-0.188624734234647,0.0200608335622222,0.206717123935667,-0.708192185227007,0.0421511480045981,0.0169784641051464,0.00167851802117985
4.65,3,0.944268115278583,0.101402834152247,0.0380260628070925,0.275826288644063,0.010447503077283,0.0145064648375907,0.115716015096489,-0.106234931485946,-0.032685323648793,0.167027802362133,-0.0664845728934599,0.0830103457747124,0.199585965554776,-0.744422742393262,0.0363831497136347,0.0122023173721529,0.00167851802117985
4.68,3,0.970870082705161,0.0921201208532975,0.0344452243619088,0.277306436353648,0.00280770287179174,0.0128686381623788,0.100477106031475,-0.0990936002685629,-0.0236314991709138,0.199133274330882,-0.00750246691284931,0.101692759992269,0.197200435397402,-0.773410239977213,0.0332956938383129,0.0131789096753848,0.00167851802117985
4.71,3,0.994399853511155,0.0810164698222806,0.0311288796655171,0.27919858394116,0.00792463962726727,0.0130975269834488,0.0771406191188289,-0.0954517248044272,-0.0165918963184505,0.202576779483423,0.0490635904009115,0.0780205694753868,0.199011200292978,-0.795124159469385,0.0306863612781152,0.011368144779809,0.00167851802117985
4.74,3,1.01860611794387,0.0827255063529364,0.0271919919431135,0.279412213507492,0.00021362956633198,0.0122786136458429,0.0814539017914365,-0.115227718944873,-0.0115258237454349,0.198141422772912,0.120497248247729,0.0487533188879055,0.203975544501073,-0.814376252530493,0.0246894741660817,0.0136875514999847,0.00167851802117985
4.77,3,1.03793959369691,0.0673085726493118,0.0236976226081118,0.279356262906786,0.000152592547379986,0.0136112552262947,0.0536820581682791,-0.101718192083499,-0.00530004781233151,0.175644194870856,0.141473637094231,0.0312153487756991,0.21223080131433,-0.825474817143264,0.0237383139540798,0.0137333292641987,0.00167851802117985
4.8,3,1.05148981190425,0.0464847763501897,0.0261187576932076,0.281380657368694,0.00795515813674327,0.0136010823898027,0.0370392976673686,-0.0969369589322591,-0.00021362956633198,0.140273242388175,0.113213497319458,0.0382396923734245,0.220028280485448,-0.831232642597735,0.0268562883388775,0.0101372315642771,0.00167851802117985
4.83,3,1.06413464766381,0.043397320474868,0.0166885382651245,0.280958484654276,-0.00256355479598376,0.00635293638925342,0.065421511480046,-0.130914232815536,0.000742617063915932,0.104332611061942,0.114322336497085,0.043448184657328,0.226101463871171,-0.837794122135075,-0.00698873867000336,-0.0282652261930194,0.00167851802117985
4.86,3,1.05975015513576,-0.0156916002889086,-0.0281685842463454,0.274264758242541,-0.0315408795434431,-0.032817570523189,-0.00660217088330739,-0.08686585080518,0.00399792474135563,0.0588549455244606,0.0282652261930194,0.0489364299447615,0.231981363363547,-0.827529730114648,-0.0291960407320373,-0.0568356374807988,0.00167851802117985
4.89,3,1.03414003926715,-0.0935188858709474,-0.0176447848953724,0.250002543209123,-0.100065106153549,-0.0354777672658467,-0.0487380596331675,-0.0752281258583331,-0.000152592547379986,0.0103152562028871,-0.245445112460707,0.0699229916277556,0.225262204860581,-0.80863368633076,-0.0098167872147791,-0.02139856156092,0.00167851802117985
4.92,3,1.00776696066164,-0.100868760236417,-0.00743125705740532,0.215572578101952,-0.113991719311096,-0.00154118472853786,-0.0203151544745221,-0.115695669423505,0.00210577715384381,-0.0407167780592263,-0.49842321034374,0.0932594785404014,0.201483199560533,-0.806054872280038,-0.00364187546413566,0.00667846715699739,0.00167851802117985
4.95,3,0.983942177597379,-0.0850957772555722,-0.00510676391898353,0.200150557980082,-0.0353302611367128,-0.00011190120141199,0.0607623523667104,-0.202734458449049,0.00401827041433963,-0.0789259519231747,-0.489705089470097,0.11141799167862,0.170155949583422,-0.813542079938149,-0.00526952930285552,-0.00930305897193314,0.00167851802117985
4.98,3,0.949954730877611,-0.112862534460484,0.00100202439446191,0.198985768201748,-0.000513728242845953,-0.00945056510106713,0.011200292977691,-0.163935260068565,0.00530004781233151,-0.137190872931099,-0.468464206874803,0.0530004781233151,0.143086031678213,-0.80664998321482,0.00302133243812372,-0.0241757459232358,0.00167851802117985
5.01,3,0.920789208655049,-0.0985646127709789,0.00448622089297159,0.197795546332184,-0.00716676330861334,-0.0189977721488083,0.0371817173782566,-0.202592038738161,0.00188197475101983,-0.227968179367453,-0.485396893215735,-0.0053814305042675,0.112928657897682,-0.807631661936298,0.00418612221645762,-0.02178004292937,0.00167851802117985
5.04,3,0.894853562018698,-0.0856095054984181,0.00396231981363364,0.195593127231666,-0.00769066438795129,-0.0206457716605121,0.033010854416537,-0.195369324828842,-0.00829086174097924,-0.268944364757225,-0.366766360464288,-0.0526546016825872,0.0884121219519639,-0.806197291990926,0.00387585070345164,-0.0201930804366181,0.00167851802117985
5.07,3,0.875047049368776,-0.065558844772688,0.00246691284930977,0.194738608966338,-0.000361135695465967,-0.0203049816380301,0.0301624601987772,-0.185806858526363,-0.0202948088015381,-0.294880011393577,-0.348724834945728,-0.0789157790866827,0.0665710420036419,-0.808247118544064,0.0022075055187638,-0.02193263547675,0.00167851802117985
5.1,3,0.857208980580055,-0.0584582049012726,0.000712098554439934,0.192531103447574,-0.00766523229672129,-0.0202134261096021,0.0376496678568885,-0.17734305856502,-0.0286772260709454,-0.265017649871314,-0.282830286568804,-0.0613625497197384,0.0480717388429416,-0.80891343933429,0.00192266609698782,-0.0185247352519303,0.00167851802117985
5.13,3,0.839523504338715,-0.0584124271370586,0.00408439385153762,0.191269671722566,-0.00718202256335134,-0.0197353027944782,0.043285419273456,-0.149652597633798,-0.0379345072786645,-0.198034607989746,-0.271340067751091,0.0447452213100579,0.0313425092318491,-0.807957192704042,0.00404878892381563,-0.0182907600126143,0.00167851802117985
5.16,3,0.825780002238024,-0.0461236406547238,0.00293994974618773,0.189942116560361,-0.00444552954700359,-0.0181178217922503,0.0686768191574857,-0.117221594897305,-0.0389110995818964,-0.113330484939116,-0.156854965870134,0.153864151941486,0.0185298216701763,-0.80703146458327,0.00289925840021973,-0.0190995005137282,0.00167851802117985
5.19,3,0.814457635222429,-0.0385143589587085,0.00255846837773776,0.186549475590279,-0.0136621194087547,-0.0164749086987925,0.127780999176,-0.128615171768344,-0.0911384421318196,0.0086723431094292,0.0157221187983846,0.271156956694235,0.0131483911659088,-0.801095614490188,0.00270088808862575,-0.0133823664052248,0.00167851802117985
5.22,3,0.809177933083082,-0.0186061179438663,0.0011139255958739,0.177587206640828,-0.0339721874650309,-0.00752789900407931,0.0232042400382499,-0.228186895352031,-0.076570940275277,0.141239661854915,0.24006368195644,0.376150802128157,0.0228125858333079,-0.786131372010458,-2.54320912299977e-05,-0.00192775251523382,0.02160201829076
5.25,3,0.811054821415855,-0.00165308592994985,-0.00274666585283975,0.170674764244514,-0.0182805871761223,-0.000264493748791976,0.00473036896877956,-0.144464451022879,-0.0224717958108259,0.0987477238278349,0.273623869543545,0.0969827366964731,0.0393993957335124,-0.771411277606535,-0.00379955442976165,-0.00194809818821782,0.0449995422223579
5.28,3,0.817677337972147,0.00927254046245715,-0.00492873928037355,0.167851802117985,-0.00848923205257322,-0.00200913520716982,0.011078218939787,-0.161392050945565,-0.0176498713136184,0.0234280424410738,0.261228268278044,0.0389161860001424,0.0564999338765628,-0.760948515274514,-0.00646483759066541,-0.00478631956948556,0.0516729229611092
5.31,3,0.832682271797845,0.0372478408154546,-0.00921658986175115,0.163645334228543,-0.0150710572628966,-5.59506007059949e-05,0.0157373780531226,-0.169042023987548,-0.0127669097974588,0.00137333292641987,0.253832616148361,-0.0147913042593666,0.0720440280363374,-0.760434787031668,-0.0129551072725608,-0.000559506007059949,0.0675323750521358
5.34,3,0.851207007049776,0.0509913429161453,-0.0167648345388145,0.161269976907661,-0.00772626931567329,-0.000427259132663961,0.0226345611946979,-0.153945534633422,-0.011342712688579,-0.00484735658843755,0.245541754407381,0.0124769839574369,0.087232072918892,-0.763746045309814,-0.0188197475101983,-0.00166834518468785,0.0775170140690329
5.37,3,0.865825373088778,0.0409456668802962,-0.0186162907803583,0.160400199387595,-0.000167851802117985,-0.00115970336008789,0.0234890794600258,-0.166681925921405,-0.00953194779300312,-0.0022176783552558,0.241223385316528,0.0133264158045188,0.101774142684205,-0.763822341583504,-0.0183874019592883,-0.00338246813358969,0.0998006124047568
5.4,3,0.876125370036927,0.0284330779951374,-0.0584887234107486,0.160527359843745,0.000152592547379986,-0.00259407330545976,0.0198675496688742,-0.158299508651997,-0.00989816990671509,-0.00620034384187343,0.227072969756157,0.0247810296945097,0.115848261970885,-0.76006347849971,-0.0813420005900245,-0.00488296151615955,0.128101443525498
5.43,3,0.857478560747093,-0.0721457564012574,-0.121641692353079,0.160527359843745,0.000152592547379986,-0.00404370250556963,0.0538041322061831,-0.190689820042522,-0.00450656656595559,-0.0209204382457961,0.0796075319681387,0.0250862147892697,0.124362926114689,-0.732876572974843,-0.11268959624012,-0.00907925656910916,0.201849421674245
5.46,3,0.855494857631153,-0.0201625619271421,-0.124581642099267,0.160710470900601,0.000152592547379986,-0.0075736767682933,0.0144149093091627,-0.12991729483932,-0.0227973265785699,-0.0466119368063397,0.104724265266884,0.0361644337290567,0.129647714672282,-0.725608081301309,-0.130227566352326,-0.0196081423383282,0.266065452029989
5.49,3,0.846502070172226,-0.0374512975452946,-0.177042959888506,0.161036001668345,0.000152592547379986,-0.011235897905413,0.0397249265012563,-0.157221187983846,-0.00770083722444329,-0.123772901598153,-0.00416577654347362,-0.0581377605517747,0.133091219824824,-0.713161615853348,-0.19368063397117,-0.0340739158299509,0.302006083356222
5.52,3,0.798791467024751,-0.17210404777164,-0.220211391542304,0.158340199997965,-0.0149286375520086,-0.0378226060772525,0.0501012197230954,-0.194657226274402,-0.00243130792158778,-0.122114729249957,-0.242027039399396,0.00732952869248533,0.124856308684551,-0.673691010264392,-0.207729321166621,-0.0419222591835281,0.358012634662923
5.55,3,0.768252611875769,-0.118528804386527,-0.21268857895647,0.147480697042756,-0.0444603818882819,-0.0353709524826807,-0.00631733146153142,-0.137160354421623,-0.0102440463474431,-0.211518702759891,-0.228776919868567,-0.0843073824274422,0.110492263557848,-0.657506027405622,-0.230399487289041,-0.0391349019847204,0.412996815902178
5.58,3,0.703222754600665,-0.234377066357412,-0.23800368256681,0.129627368999298,-0.0694906460768456,-0.0262916959135716,0.0662353383994059,-0.149876400036622,0.000315357931251971,-0.114073102003032,-0.529643645537685,-0.151407411928668,0.0886969613737398,-0.614266385896379,-0.256040121667124,-0.0368867051199886,0.434664957630136
5.61,3,0.619001841283405,-0.301858577227088,-0.234616128014974,0.097338785973693,-0.122964161097039,-0.0295063122450433,0.00745668914863531,-0.165766370637125,0.00517797377442752,-0.110380362356436,-0.688380586158839,-0.0424817651905881,0.0501673431602934,-0.568605609302042,-0.207917518641723,-0.0148014770958586,0.477980895413068
5.64,3,0.576698100731427,-0.155903805658132,-0.199931841995504,0.0688955351420637,-0.0770948413546149,0.00187688833277383,-0.0287382630898974,-0.124362926114689,0.0136824650817387,-0.0629037344482762,-0.469537441124709,-0.403093559577217,0.0151270078636026,-0.561306599119032,-0.217632577491582,0.00102237006744591,0.511413922544023
5.67,3,0.502171900591042,-0.263425600960316,-0.205516729229611,0.0638142033143101,-0.0119479964598529,-0.00290434481846573,0.0695313374228136,-0.21418907233904,-0.00696839299701936,-0.0463677887305317,-0.620080161951557,-0.399644968006429,-0.0178228095339824,-0.519877722505366,-0.185516932686341,-0.00798567664621926,0.531881669565925
5.7,3,0.444013794366283,-0.208141321044547,-0.161971902625609,0.0506047751294493,-0.0567796868800928,-0.00451673940244758,-0.087435529648732,-0.126600950142928,0.0136824650817387,-0.00616982533239743,-0.428907132175665,-0.248247728914253,-0.0484023560289315,-0.492294076357311,-0.160130619220557,-0.00194301176997182,0.558102155624053
5.73,3,0.396669413332519,-0.167602567623931,-0.143258969898577,0.021510462762332,-0.10650959807123,0.00887579983926918,-0.00829086174097924,-0.156570126448358,0.0294503616443373,0.115461694184189,-0.358363597521897,-0.043142999562568,-0.0723136082033753,-0.468860947497991,-0.143879512924589,0.0205745618050681,0.564078697063102
5.76,3,0.34438612018189,-0.182444736065757,-0.106173894466994,-0.00622068951485743,-0.0837885677663503,0.021556240526546,-0.00399792474135563,-0.168085777357301,-0.0115054780724509,0.0803806675415306,-0.267606636758527,0.0507522812585833,-0.0909298989837336,-0.435209204382458,-0.0999633777886288,0.0401725313069043,0.601540167444889
5.79,3,0.310124006876837,-0.120446384065269,-0.0961536505223752,-0.0134077984964548,-0.00419120863470361,0.0336415702790409,-0.0282906582842494,-0.150242622150334,-0.00725323241879533,0.0590889207637766,-0.0140486871954507,-0.000849431847081922,-0.0991546372875149,-0.409202347890662,-0.097638884650207,0.0373750012716046,0.648131758578244
5.82,3,0.28395438500117,-0.0931221452477594,-0.138284452853989,-0.010345774712363,0.00792972604551327,0.0312051759392071,-0.0134586626789148,-0.14849289427371,0.00129195023448388,0.0794803715119887,-0.00524409721162552,0.0521103549302652,-0.0983865881323689,-0.382254504023357,-0.142979216895047,0.0231025116733299,0.663411358989227
5.85,3,0.24268318735313,-0.142501093579923,-0.144566179387799,-0.0121361939349549,-0.00736004720196132,0.0231737215287739,-0.0097964415417951,-0.157973977884253,-0.0150659708446506,0.0175532293669444,-0.156717632577492,0.0879238258003479,-0.103859574165064,-0.346476638080996,-0.140410575680817,0.0193538214260282,0.706386506749677
5.88,3,0.203538112531917,-0.135781935076957,-0.13034964039023,-0.0164443901893165,-0.0140436007772047,0.0204474013489181,-0.0146183660390027,-0.161107211523789,-0.00141402427238787,-0.0346130761640268,-0.147317931658884,-0.054836675110121,-0.112821843114516,-0.316298918627481,-0.133625293740654,0.0178278959522284,0.766711427147232
5.91,3,0.156773583178198,-0.163090914639729,-0.108284758039084,-0.0237281411175878,-0.0281431521551154,0.0193894263537502,0.00346893724377168,-0.157546718751589,-0.00456760358490758,-0.0511032441175573,-0.307906328521582,0.00408948026978362,-0.126631468652404,-0.283338928393404,-0.102679525131993,0.0205084383678701,0.784727520574562
5.94,3,0.114179916786197,-0.145954771568957,-0.0512151453189693,-0.0386059144871364,-0.0536006754763431,0.0259153009633676,-0.0359202856532487,-0.155451114434238,-0.00300098676513972,-0.0306202378409172,-0.283308409883928,-0.0250658691162857,-0.144845932391329,-0.25894446648559,-0.04368724631489,0.0344147058524328,0.790302234972177
5.97,3,0.0799076306446526,-0.114393546352529,-0.0125075024669128,-0.0502995900346894,-0.0299488306324452,0.0362305571662547,-0.0120955025889869,-0.158035014903205,0.00147506129133986,-0.0223141168451999,-0.249905901262449,0.0102796512751651,-0.160842717774997,-0.240679138564206,0.000991851557969909,0.043580431531724,0.789412111779127
6,3,0.0555386008280689,-0.0707266457106235,0.0259661651458276,-0.0518000834172592,-0.000310271513005971,0.0411440371918902,-0.0300403861608732,-0.166030864385917,-0.00426241849014761,-0.00826542964974924,-0.187719351786859,-0.00663777581102939,-0.17490157780694,-0.230374055197811,0.0347249773654388,0.0422986541337321,0.789513840144047
6.03,1,0.043905962299468,-0.0202897223832921,0.043244727927488,-0.0519984537288532,0.000152592547379986,0.0425122837000641,-0.0891445661793878,-0.144708599098687,0.00468967762281157,-0.0238909065014598,0.137328206223741,-0.0451419619332458,-0.175013479008352,-0.218822799361146,0.0460778628905098,0.0425733207190161,0.79937640512304
6.06,1,0.0386364329966124,0.00240587583035778,0.0443383078503779,-0.0509913429161453,0.00611896114993744,0.0425275429548021,-0.0345571255633208,-0.153538621173742,-0.00169886369416384,-0.0185654265978983,0.210918505406863,0.0130771813104648,-0.168248542741173,-0.206798506627603,0.0361135695465967,0.0390026551103244,0.80390331736198
6.09,1,0.0310576698100731,-0.00830612099571724,0.0249692271696117,-0.0490330718914355,0.00472528255053356,0.0351115451521348,-0.0129703665272988,-0.164586321604053,-0.00157678965625985,-0.0242164372692038,0.176773379721468,0.00802128157394126,-0.157399212622456,-0.188375499740593,0.0283822138126774,0.0374360382905566,0.8096001057975
6.12,1,0.0243537705618458,-0.00810775068412325,0.032873521123895,-0.0426140120649841,0.0291553493860693,0.0292926826787113,-0.0211289813938821,-0.160802026429029,0.00202439446190781,-0.0200811792352062,0.206467889441613,-0.00534582557654551,-0.145598722291737,-0.169855850906908,0.032303842280343,0.0171208838160344,0.811075167088839
6.15,1,0.0209509567552721,-0.000320444349497971,0.0277718436231574,-0.0337789035716829,0.0233059684031699,0.00617999816888943,-0.0313425092318491,-0.156407361064486,0.00381481368449965,-0.00130212307097588,0.185888241218299,-0.00922676269824315,-0.135466577145706,-0.156320891954304,0.0267952513199255,0.00818404695781325,0.816573585212765
6.18,1,0.0156763410341706,-0.00738039287494532,0.0294707073173213,-0.0311950031027151,0.00990325632496109,0.0124922432121749,-0.00532039348531551,-0.158808150476597,0.000925728120771915,0.0155237484867906,0.163004445529547,-0.00460320851262958,-0.126397493413088,-0.142007711010061,0.0303811761833552,0.021744438001648,0.813008006022319
6.21,1,0.0102694784386731,-0.00933866389965514,0.0316476943266091,-0.021540981271808,0.0355489771212907,0.000473036896877956,-0.021902116967274,-0.158340199997965,0.00155644398327586,0.0210933764661601,0.164744000569679,-0.000503555406353954,-0.11177404095584,-0.121967223120823,0.0316883856725771,-0.00677002268542538,0.808511612292856
6.24,1,0.00590533158360546,-0.00856552832626321,0.0319986571855831,-0.0149540696432386,0.0176040935494044,-0.00115461694184189,-0.0210679443749301,-0.158808150476597,0.00192266609698782,0.0340027059745069,0.172185430463576,-0.00501012197230954,-0.103681549526454,-0.109490239163386,0.032273323770867,-5.08641824599953e-05,0.810795414085309
6.27,1,0.0043590604368216,-0.000483209733369956,0.0277565843684194,-0.00792972604551327,0.0261136712749616,-0.00255338195949177,-0.0118513545131789,-0.159764397106845,0.0010681478316599,0.0482701091545356,0.19764804020305,-0.00257881405072176,-0.0893938006734418,-0.0936714784183274,0.0263018687500636,-0.00895718253120518,0.818933683278909
6.3,1,0.00318409782199571,0.000152592547379986,0.0242367829421878,-0.000172938220363984,0.0259915972370576,-0.0100049846898811,-0.0142928352712587,-0.159764397106845,0.00249234494053977,0.0638803267515081,0.202805668304493,-0.00249234494053977,-0.076362397127191,-0.0794600258390047,0.0234839930417798,-0.0176396984771264,0.822921435183772
6.33,1,0.0022176783552558,0.000152592547379986,0.022120832951852,0.00705486210720135,0.0211238949756361,-0.0164393037710705,-0.00778221991637928,-0.160476495661285,0.000966419466739911,0.0837580492568743,0.209112826929533,-0.00183619698680583,-0.0625731172622862,-0.064714499343852,0.021362956633198,-0.0211035493026521,0.826390372427544
6.36,1,0.00156153040152186,0.000152592547379986,0.0197403892127242,0.0127313048697368,0.0198268583229062,-0.0200659199804682,-0.00702943001597135,-0.159988199509669,-0.00186162907803583,0.0883307392600279,0.219870601519822,-0.00232449313842179,-0.0491602323475855,-0.0506352936389253,0.0189214758751183,-0.0232856227301859,0.822957040111494
6.39,1,0.00137333292641987,0.000152592547379986,0.0175786614581744,0.0224565365560879,0.0351674957528408,-0.0300759910885952,-0.0032654805139317,-0.159377829320149,-0.00346893724377168,0.0888851588488418,0.235623238827682,0.00152592547379986,-0.0310627562283191,-0.032293669443851,0.0162511062959685,-0.0413017161575162,0.827784051026948
6.42,1,0.00141911069063387,0.000152592547379986,0.0145980203660187,0.032258064516129,0.0285754977060254,-0.0471561835586617,-0.00342824589780368,-0.161392050945565,-0.00190232042400382,0.0951821446373892,0.233537807346823,-0.00253812270475377,-0.0177872046062604,-0.0191198461867122,0.0133976256599628,-0.0489008250170395,0.828358816288746
6.45,1,0.00152592547379986,0.000152592547379986,0.0117852310759809,0.0409812718080182,0.0311034475742871,-0.0529648731955931,0.00053916033407595,-0.160781680756045,-0.00342824589780368,0.116773990091657,0.24064862005473,0.000839259010589923,-0.00175990071311584,-0.00319427065848771,0.010528885769219,-0.0559506007059949,0.8273364462213
6.48,1,0.00167343160293385,0.000152592547379986,0.00926236762596515,0.0482192449720756,0.021530808435316,-0.0579495630766727,0.00188197475101983,-0.163141778822189,-0.0043844925280516,0.117882829269285,0.234575436669006,-0.00103254290393791,0.010605182042909,0.00903347880489517,0.00779747917111728,-0.0563727734204128,0.826888841415652
6.51,1,0.00179041922259184,0.000152592547379986,0.0064902696818954,0.0566270943327128,0.0289773247474593,-0.0673085726493118,0.00487278867966755,-0.164403210547197,-0.00580868963693147,0.125649789930926,0.24202195298115,0.00304167811110772,0.0265714489171016,0.0248471531317077,0.00495925778984954,-0.0688955351420637,0.821548102257352
6.54,1,0.00223293760999379,0.000152592547379986,0.00316883856725771,0.0632496108890042,0.0167037975198625,-0.0689006215603097,-0.00293994974618773,-0.170954517248044,-0.00497451704458754,0.14877264727724,0.22108116906237,0.00371817173782566,0.0357524338511307,0.0335805332600889,0.00211594999033581,-0.0694499547308776,0.807280699077324
6.57,1,0.00314340647602771,0.000152592547379986,0.000152592547379986,0.0642516352834661,0.000371308531957966,-0.0561642302723268,0.0151066621906186,-0.170547603788364,-0.0129907122002828,0.188472141687267,0.185516932686341,0.0456251716666158,0.0479598376415296,0.0448978138574379,-0.000640888698995941,-0.0567542547888628,0.74202195298115
6.6,1,0.00401827041433963,0.000152592547379986,8.6469110181992e-05,0.0631733146153142,-0.00687683746859137,-0.054017761772515,1.01728364919991e-05,-0.179825230669067,-0.022044536678162,0.205292926826787,0.202459791863765,0.109642831710766,0.0601163772494685,0.0561438845993428,-0.00186162907803583,-0.0514135156305633,0.516368093915627
6.63,1,0.00598162785729545,0.000152592547379986,-0.00163782667521185,0.0584531184830266,-0.0158899706005025,-0.043351542710654,-0.0469069490646077,-0.240577410199286,-0.0340688294117049,0.270231228573463,0.307906328521582,0.362839645578377,0.075787631865393,0.0699026459547716,-0.00289925840021973,-0.0421206294951221,0.220363984089684
6.66,3,0.0137892798649047,0.0119683421328369,-0.00521866512039552,0.0455285297199418,-0.0557267983031709,-0.0246030050558997,-0.127923418886888,-0.264992217780084,0.0362458164209927,0.0827509384441664,-0.010656046225369,0.697663299457788,0.0858485671559801,0.0721406699830114,-0.0121158482619709,-0.00645975117241941,0.0496993926816614
6.69,3,0.0192368338063702,0.00581377605517747,-0.0145929339477727,0.0304676452935372,-0.0383566799930825,0.00451673940244758,0.0155746126692506,-0.226681315551215,0.0299793491419212,-0.02170374665568,-0.00441501103752759,0.521617277545498,0.0825525681325724,0.0634276355276142,-0.0148065635141046,0.00573239336324147,0.0115207373271889
6.72,3,0.0351013723156428,0.0415662099063082,-0.0235602893154698,0.0193945127719962,-0.0481327758618936,-0.0022075055187638,0.279519028290658,-0.214128035320088,-0.0152287362285226,-0.010467848750267,0.377676727601957,-0.299330627358826,0.0942818486078473,0.0592669454023865,-0.0344910021261228,0.00964384899441511,0.00365713471887366
6.75,3,0.0572832422864467,0.0598111921547085,-0.0666473382773319,-0.000676493626717938,-0.0611845250811284,0.0238349559007538,-0.0862351349426761,-0.162511062959685,-0.00802636799218726,-0.0128025147251808,0.217312133142084,-0.425641651661733,0.115960163172297,0.0587633899960326,-0.0680104983672598,0.0490127262184515,0.00205491297138381
6.78,3,0.065146844894762,0.0191910560421562,-0.0159306619464705,-0.00580868963693147,-0.00886054058453118,0.043748283333842,0.144871364482559,-0.15561387981811,-0.0502639851069674,0.0230262153996399,0.168284147668895,-0.281024608091474,0.123844111453597,0.0587939085055086,0.0335703604235969,0.0706656086916715,0.00167343160293385
6.81,3,0.140568254646443,0.250724814600055,0.0820439263079725,0.0227210303048799,0.159154026917325,0.108666239407534,0.189448733990499,-0.294696900336721,-0.0494501581876075,-0.0159204891099785,1.02286345001577,0.227134006775109,0.156651509140294,0.0162053285317545,0.0813470870082705,0.113361003448592,0.00167851802117985
6.84,3,0.283425397503586,0.482807906328522,-0.00065614795373394,0.106565548671936,0.308547217220578,0.0209814752647481,-0.0175684886216824,-0.293048900825017,-0.0204779198583941,0.0419171727652821,1.45477665537482,0.582674642170476,0.237667978962574,-0.0455285297199418,-0.00562557858007548,0.00501012197230954,0.00167851802117985
6.87,3,0.409843236589658,0.439954832605976,-0.00901821955015717,0.183762118391471,0.238619139174576,-0.0145573290200507,-0.075716422009949,-0.188777326782027,0.00369273964659566,0.0968352305673391,1.18259224219489,0.245501063061413,0.318028300831121,-0.0916063926104516,-0.00594093651132745,-0.0225175735750399,0.00167851802117985
6.9,3,0.515727205216631,0.368689026561276,0.00234483881140578,0.221193070263782,0.102582883185319,-0.00234992522965178,-0.0420646788944161,-0.137485885189367,0.0128686381623788,-0.164103111870683,0.818796349986267,-0.126717937762586,0.376547542751345,-0.138935514389477,0.00916063926104516,0.00534582557654551,0.00167851802117985
6.93,3,0.60973947365744,0.32850632241788,0.00941496017334514,0.236864324879706,0.0449537644581439,0.00900804671366517,-0.0338246813358969,-0.125176753034048,-0.00137333292641987,-0.131046479689932,0.576087730541907,-0.417315184993032,0.41758476516007,-0.191890214748578,0.0157272052166306,0.0199845372885322,0.00167851802117985
6.96,3,0.695582954395174,0.307733390301218,0.0148370820235806,0.24441256955677,0.0244198939990438,0.0180262662638223,0.0101219723095391,-0.149082918790246,-0.0137841934466587,-0.171478418327382,0.458382925911232,-0.326848150069684,0.447355571153905,-0.248018840093183,0.0137638477736747,0.0243181656341238,0.00167851802117985
6.99,3,0.771457055370749,0.278135522527746,0.0139876501764987,0.252118493199459,0.0300556454156112,0.0211696727398501,0.0157780693990905,-0.147760450046286,-0.0264188563697216,-0.0605232907091484,0.417132073936176,-0.110314238919238,0.474410229804376,-0.296843368836533,0.0132958972950428,0.0190435499130222,0.00167851802117985
7.02,3,0.840642516352835,0.250424715923541,0.0142012797428307,0.26316619362977,0.0395621611173844,0.0160883409120965,0.00448622089297159,-0.121880754010641,-0.0248522395499537,-0.0824152348399304,0.202998952197841,-0.0743329162470372,0.492904446546831,-0.347499008148442,0.0127516505427208,0.00936918240913114,0.00167851802117985
7.05,3,0.904273608610289,0.228843043305765,0.0115309101636809,0.271736808374279,0.0250200913520717,0.011134169540493,0.0118106631672109,-0.119357890560625,-0.0165308592994985,0.0194758954639322,0.0145776746930347,0.0964842677083651,0.49870296334727,-0.405351929278441,0.00733970152897732,0.00799076306446526,0.00167851802117985
7.08,3,0.954364655496892,0.180837427900021,0.0086672566911832,0.275449893693859,0.00936918240913114,0.010381379640085,0.0290841395306253,-0.104281746879482,-0.0181381674652343,0.0347148045289468,-0.153665781629892,0.0404268522192043,0.494460890530107,-0.459685048982208,0.0087282937101352,0.0123243914100569,0.00167851802117985
7.11,3,0.989684743797113,0.128676208787296,0.0134179713329468,0.275582140568255,0.000183111056855983,0.0130008850367748,0.0190537227495142,-0.0852585426394442,-0.0205796482233141,0.0503860591448714,-0.39183731599882,0.0801619515569526,0.4774315622425,-0.512034465570035,0.0162561927142145,0.0159459212012085,0.00167851802117985
7.14,3,1.01392661315755,0.0894497512741478,0.0206152531510361,0.27752006591998,0.00792463962726727,0.0140232551042207,0.0582801802626626,-0.10605182042909,-0.0186671549628183,0.0823491114027324,-0.515666168197679,0.123549099195329,0.449466434725995,-0.564231289610482,0.0223802402823979,0.0121819716991689,0.00167851802117985
7.17,3,1.03062023784092,0.0641702525915301,0.0152134769737846,0.277871028778954,0.00021362956633198,0.00730409660125533,0.0817590868861965,-0.115492212693665,-0.0155746126692506,0.119398581906593,-0.553951638335317,0.161824396496475,0.416959135715812,-0.613416954049298,-0.00725831883704133,-0.0265002390616576,0.00167851802117985
7.2,3,1.0233314004944,-0.0199387595243182,-0.0279091769157994,0.272550635293639,-0.0308135217342652,-0.0338958911913409,-0.00359101128167567,-0.0511591947182633,-0.010589922788171,0.139189835301777,-0.759015676341034,0.164601580858791,0.378755048270109,-0.644347463403221,-0.0253812270475377,-0.0575172175257627,0.00167851802117985
7.23,3,0.991002126122827,-0.0994242174545528,-0.010681478316599,0.24298837244789,-0.1100446587522,-0.032329274371573,0.0468662577186397,-0.0826339508245084,-0.0306507563503932,0.152516251106296,-1.00847397279784,0.162790815963215,0.317962177393923,-0.67246009704886,-0.00390636921292764,-0.0144301685639007,0.00167851802117985
7.26,3,0.95496485284992,-0.110365103101698,0.00179550564083783,0.202017273476363,-0.124205247149063,-0.0102237006744591,0.550767540513321,-0.188187302265491,-0.108778140608946,0.294208604185105,-0.144367809076205,0.291085543382061,0.270475376649271,-0.684250414543087,0.00289925840021973,0.0171768344167404,0.00167851802117985
7.29,3,0.953876359345276,-0.0147963906776126,-0.00380464084800765,0.173512985625782,-0.087115085299234,0.0102033550014751,0.0889818007955158,-0.00184128340505183,0.0033061718598997,0.314991709138259,0.160685038809371,0.311649932350637,0.279162979013438,-0.674474318674276,-0.0118004903307189,0.0208441419721061,0.00167851802117985
7.32,3,0.965015615304015,0.0238044373912778,-0.0241503138320058,0.165679901526943,-0.0117801446577349,0.00524409721162552,0.00530004781233151,-0.117994730470697,0.0266833501185135,0.205287840408541,0.163574124373099,0.163212988677633,0.289254432813501,-0.675517034414706,-0.0264951526434116,3.05185094759972e-05,0.00167851802117985
7.35,3,0.958891567735832,-0.0251472518082217,-0.0191351054414502,0.165715506454665,0.000147506129133986,-0.00453199865718558,0.0589719331441186,-0.115309101636809,-0.0181178217922503,0.110904263435774,0.0043743196915596,0.0196590065207882,0.292402925707775,-0.666275012461725,-0.0148116499323506,-0.0065614795373394,0.000900296029541917
7.38,3,0.959074678792688,-0.00817896053956725,-0.0158085879085665,0.165715506454665,0.000152592547379986,-0.00566118350779748,0.076489557583341,-0.158462274035869,-0.0396028524633524,0.0577511927650787,0.143391216772973,-0.0410931730094302,0.296065146844895,-0.662739951780755,-0.0169733776869004,-0.0065614795373394,0.00125125888851588
7.41,3,0.96193324584694,0.00178024638609984,-0.0197912533951842,0.165715506454665,0.000152592547379986,-0.00621560309661143,0.0399894202500483,-0.178421379233172,-0.0101830093284911,-0.0283618681396934,0.0726340525528733,-0.0897040721864477,0.289946185694957,-0.67172256640319,-0.0204117964211961,-0.0065614795373394,0.00152592547379986
7.44,3,0.964176356293425,0.00378429517502365,-0.0193233029165522,0.164606667277037,-0.00687683746859137,-0.00573239336324147,0.075736767682933,-0.17246009704886,-0.010589922788171,-0.0789869889421267,0.0584683777377646,-0.156971953489792,0.294071270892463,-0.669835505233924,-0.0202693767103081,-0.00406913459679963,0.00167343160293385
7.47,3,0.964064455092013,-0.00486770226142155,-0.0205135247861161,0.163665679901527,-0.00065106153548794,-0.00302641885636972,0.00452691223893958,-0.160496841334269,-0.0167750073753065,-0.149260943428856,-0.0797194331695507,-0.191284930977304,0.292377493616545,-0.67141738130843,-0.0192775251523382,-0.00490330718914355,0.00167851802117985
7.5,3,0.962365591397849,-0.00841802219712923,-0.0183823155410423,0.163869136631367,0.000152592547379986,-0.00395723339538764,-0.0451572211879838,-0.17805515711946,-0.00485244300668355,-0.221249020864488,-0.347839798170924,-0.251182592242195,0.277403078300322,-0.684718365021719,-0.0186061179438663,-0.00564592425305948,0.00167851802117985
7.53,3,0.950356557919045,-0.0379446801151565,-0.0145675018565427,0.164031902015239,0.000152592547379986,-0.00468459120456557,-0.0251574246447137,-0.165746024964141,-0.0135400453708508,-0.282474237291584,-0.527649769585253,-0.331934568315683,0.250501012197231,-0.699596138391268,-0.0118208360037029,-0.00564592425305948,0.00167851802117985
7.56,3,0.933016958118432,-0.0537380087689851,-0.00884528132979319,0.164153976053143,0.000152592547379986,-0.00518306019267352,-0.0173243405458744,-0.15652943510239,-0.0255033010854417,-0.320449435916217,-0.651066621906186,-0.399680572934151,0.214529862361522,-0.718248034099348,-0.00607826980396944,-0.00564592425305948,0.00167851802117985
7.59,3,0.915545111443424,-0.0514948983224993,-0.00589007232886746,0.164286222927539,0.000152592547379986,-0.00534582557654551,0.0366527298806726,-0.186763105156611,-0.0426953947569201,-0.28001241086052,-0.602801599169897,-0.369182409131138,0.175827305927712,-0.739499089531134,-0.00508133182775353,-0.00564592425305948,0.00161748100222785
7.62,3,0.892417167678864,-0.0681122267321797,-0.00132755516220588,0.164342173528245,0.000152592547379986,-0.0054373811049735,0.00827051606799524,-0.144159265928119,-0.0508133182775353,-0.140644550920133,-0.587572862941374,-0.284330779951374,0.141132847071749,-0.751045258949553,0.000422172714417961,-0.00605792413098544,0.00150049338256986
7.65,3,0.873785617643768,-0.0566525264239428,0.000233975239315978,0.164438815474919,0.000152592547379986,-0.00592059083834346,0.0344147058524328,-0.162795902381461,-0.0504674418368074,0.00603757845800144,-0.553102206488235,-0.121534877569913,0.106362091942096,-0.767214982553585,0.000259407330545976,-0.00610370189519944,0.00163274025696585
7.68,3,0.854970956551815,-0.0572679830317087,0.000279753003529974,0.164418469801935,0.000152592547379986,-0.00595619576606545,0.0277413251136814,-0.153111362041078,-0.0365306558427686,0.15098523921425,-0.506383454898729,0.076331878617715,0.0748466444898831,-0.779900509659108,0.00192266609698782,-0.00610370189519944,0.00167851802117985
7.71,3,0.839569282102929,-0.0469781589200517,0.00166325876644185,0.164403210547197,0.000152592547379986,-0.00609352905870744,0.043773715425072,-0.165929136020997,-0.0192164881333862,0.242215236874498,-0.439283425397504,0.225012970366527,0.0461388999094618,-0.793196406954151,0.00192775251523382,-0.00610370189519944,0.00167851802117985
7.74,3,0.826329335408592,-0.0397554450107323,0.000244148075807978,0.164235358745079,0.000152592547379986,-0.00602231920326345,0.0419019135105441,-0.160334075950397,-0.00267545599739575,0.266630044455295,-0.355047252825505,0.324142175562812,0.0228736228522599,-0.803211564480524,0.00159713532924385,-0.00569170201727348,0.00167851802117985
7.77,3,0.817952004557431,-0.0244961902727337,0.000203456729839981,0.164189580980865,0.000152592547379986,-0.00590533158360546,0.053865169225135,-0.166478469191565,0.010427157404299,0.242215236874498,-0.253842788984853,0.351603747672964,0.0043794061098056,-0.813353882463047,-6.10370189519944e-05,-0.00564592425305948,0.00167851802117985
7.8,3,0.810764895575833,-0.0204575741854101,0.00032553076774397,0.164189580980865,0.000152592547379986,-0.00574256619973347,0.0311797438479771,-0.136773786634927,0.0202948088015381,0.146499018321279,-0.190287993001089,0.330205186112044,-0.00811283710236925,-0.818786177149775,-0.000381481368449965,-0.00564592425305948,0.00167851802117985
7.83,3,0.802163762321848,-0.0263171280048016,0.000157678965625985,0.164113284707175,0.000152592547379986,-0.00555945514287749,0.0260933256019776,-0.125075024669128,0.0258898688721376,0.0141198970508947,-0.181330810469883,0.224692526017029,-0.0193538214260282,-0.821446373892432,0.0010681478316599,-0.00564592425305948,0.00167851802117985
7.86,3,0.794320505386517,-0.0243283384706158,0.000350962858973968,0.164036988433485,0.000152592547379986,-0.00566626992604348,0.0443433942686239,-0.133335367900632,0.0203151544745221,-0.118594927823725,-0.104607277647226,0.0827153335164444,-0.0280872015544094,-0.822336497085482,0.00150557980081586,-0.00564592425305948,0.00150049338256986
7.89,3,0.786009297972554,-0.0250099185155797,0.000208543148085981,0.164011556342255,0.000152592547379986,-0.00573239336324147,0.043488876003296,-0.130059714550208,0.00926745404421115,-0.224819686473179,-0.0363882361318807,-0.0297962380850653,-0.0320139164403211,-0.817941831720939,0.00239061657561978,-0.00564592425305948,0.00157170323801386
7.92,3,0.77673167109185,-0.0288043865270953,0.00384533219397565,0.163818272448907,0.000152592547379986,-0.00562557858007548,0.0454013692637918,-0.130568356374808,-0.00190232042400382,-0.289630827763705,0.0233212276579079,-0.0947854040142013,-0.032349620044557,-0.808984649189734,0.00415051728873562,-0.00564592425305948,0.00167851802117985
7.95,3,0.766696167892494,-0.0320240892768131,0.00523901079337952,0.163731803338725,0.000152592547379986,-0.00564592425305948,0.0428174687948241,-0.154576250495926,-0.0669881282998138,-0.253278196559547,0.0908892076377656,-0.0452894680623798,-0.0288959420555233,-0.795525986510819,0.00587989949237546,-0.00564592425305948,0.00167851802117985
7.98,3,0.758827478865932,-0.0250404370250557,0.00595619576606545,0.161626026184881,-0.00766523229672129,-0.00164799951170385,-0.0533158360545671,-0.295999023407697,-0.197220781070386,0.0414390494501582,0.170674764244514,0.365448978138574,-0.0208950061545661,-0.779646188746808,0.00584938098289946,-0.00196335744295582,0.00368256681010366
8.01,3,0.762052268033896,0.0042980234178696,0.00190232042400382,0.160476495661285,-0.0064699240089114,-0.00180059205908383,-0.000844345428835922,-0.123020111697745,0.0132348602760908,0.032507299010183,0.226574500768049,0.0397147536647643,-0.0147607857498906,-0.776711325418866,-1.52592547379986e-05,-0.00209051789910581,0.00424715923540961
8.04,3,0.765572069460128,0.000747703482161931,0.000457777642139958,0.159927162490717,-0.000808740501113926,0.000162765383871985,0.00733461511073133,-0.144403414003927,-0.0556352427747429,-0.0491602323475855,0.178960539567248,0.0449283323669139,-0.000854518265327921,-0.766279081596322,7.6296273689993e-05,-0.00295520900092573,0.0021566413363038
8.07,3,0.772474339019949,0.00885036774803919,-0.00121565396079389,0.159459212012085,-0.000101728364919991,-0.00098167872147791,0.00837224443291523,-0.178095848465428,-0.0140486871954507,-0.0621865494755903,0.183645130771813,-0.146244697408979,0.0132399466943368,-0.758959725740328,-0.00186671549628183,-0.00300098676513972,0.00259915972370576
8.1,3,0.781736706645914,0.0187536240730003,-0.00377412233853165,0.157602669352295,-0.00752789900407931,0.00075787631865393,0.0191147597684662,-0.159438866339101,-0.0147200944039226,-0.0738191880041912,0.159861039053519,-0.16917935728019,0.0233517461673838,-0.75813063956623,-0.00477614673299356,5.08641824599953e-06,0.0121616260261849
8.13,3,0.793481246375927,0.0279396954252754,-0.00581886247342346,0.157104200364188,4.06913459679963e-05,0.0011190120141199,0.0148218227688426,-0.162348297575813,-0.0097760958688111,-0.065574104027426,0.150008646911018,-0.146117536952829,0.032670064394055,-0.760582293160802,-0.00792463962726727,-0.00163274025696585,0.0183568834498123
8.16,3,0.806202378409172,0.0347656687114068,-0.00935392315439314,0.157017731254006,0.000152592547379986,0.0010681478316599,0.0135807367168188,-0.158991261533453,-0.0087384665466272,-0.0508794417147333,0.143401389609465,-0.0893581957457198,0.0414237901954202,-0.764554785810928,-0.010773033845027,-0.00167851802117985,0.0237027090263578
8.19,3,0.817946918139185,0.0333465580207729,-0.0114749595629749,0.154896694845424,-0.0076499730419833,0.00196335744295582,0.0155542669962666,-0.163975951414533,-0.010528885769219,-0.0306660156051312,0.145268105105747,-0.0295876949369793,0.0498825037385174,-0.767835525579597,-0.0117241940570289,0.00153101189204586,0.0332041383098849
8.22,3,0.828470717490158,0.0306660156051312,-0.0121158482619709,0.154856003499456,0.000122074037903989,0.000172938220363984,0.0116072064373709,-0.156712546159246,-0.0126855271055228,-0.0208288827173681,0.161865087842443,-0.0199947101250242,0.0591448713644826,-0.769107130141097,-0.0126906135237688,-0.000717184972685934,0.0582852666809086
8.25,3,0.837494023458561,0.0258084861802016,-0.0121972309539069,0.155023855301574,0.000152592547379986,0.000152592547379986,0.0148218227688426,-0.165807061983093,-0.010488194423251,-0.011190120141199,0.189001129184851,-0.0297250282296213,0.0696483250424716,-0.767632068849757,-0.0118869594409009,-0.00076296273689993,0.0805942971078626
8.28,3,0.850332143111464,0.0399232968128503,-0.0141707612333547,0.155674916837062,0.00289925840021973,0.000203456729839981,0.0165715506454665,-0.160659606718141,-0.0115868607643869,-0.00409965310627562,0.229336425875627,-0.0202134261096021,0.0822829879655344,-0.767815179906613,-0.0160883409120965,-0.000986765139723909,0.0984984893337809
8.31,3,0.858846807255267,0.0272682882168035,-0.0504827010915454,0.15744499038667,0.00523901079337952,-0.00245165359457177,0.022105573697114,-0.156610817794326,-0.0123396506647949,0.00498468988107954,0.222830896938993,-0.0101016266365551,0.0962248603778191,-0.76237779880164,-0.0699026459547716,-0.0054221218502355,0.117826878668579
8.34,3,0.841725923439233,-0.0619932655822423,-0.101168858912931,0.158248644469537,0.00611896114993744,-0.00344859157078768,0.0567135634428948,-0.175145725882748,-0.010406811731315,-0.00660217088330739,0.0935799228898994,-0.00065106153548794,0.105502487258522,-0.735984374523148,-0.0943072806990773,-0.00620034384187343,0.179525131992553
8.37,3,0.836603900265511,-0.0251065604622537,-0.0951923174738813,0.162648396252327,0.0150252794986826,-0.00752789900407931,0.0188095746737063,-0.145074821212399,-0.02208522802413,-0.0185043895789463,0.124566382844529,0.00793481246375927,0.111733349609872,-0.724656921089307,-0.098050884528133,-0.0188502660196743,0.233319091362245
8.4,3,0.830317087313456,-0.0272479425438195,-0.137170527258115,0.166392000081383,0.010661132643615,-0.0193843399355042,0.0377920875677765,-0.158645385092725,-0.010528885769219,-0.0664438815474919,0.0749839777825251,-0.0442874436679179,0.118147323018077,-0.711915443383079,-0.146549882503739,-0.0339671010467849,0.254982146671957
8.43,3,0.80024109622486,-0.108829004791406,-0.16854355499944,0.167261777601449,0.000269580167037975,-0.0334075950397249,0.0451165298420158,-0.169733776869004,-0.00473036896877956,-0.032832829777927,-0.0698009175898516,0.00271106092511775,0.117969298379467,-0.682037822606077,-0.165313679413231,-0.0415814691610462,0.291426333404543
8.46,3,0.774132511368145,-0.097760958688111,-0.1752067629017,0.165364543595691,-0.00797041739148127,-0.0415306049785862,0.0240587583035778,-0.150303659169286,-0.0124617247026989,-0.0619576606545203,-0.0693583992024496,-0.0187027598905403,0.113381349121576,-0.660476495661285,-0.17836034221422,-0.0456455173395998,0.322667114271472
8.49,3,0.747230445265053,-0.0986968596453749,-0.196086509801528,0.162383902503535,-0.0126244900865708,-0.0467187515895057,0.0251777703176977,-0.163528346608885,-0.00167851802117985,-0.0403047781813003,-0.0952330088198492,-0.0311339660837631,0.108101646982228,-0.638869390952279,-0.196330657877336,-0.0491958372753075,0.336756492812891
8.52,3,0.720760724712872,-0.0994699952187668,-0.209453616952015,0.15713980529191,-0.0228939685252439,-0.0497756889553514,0.021596931872514,-0.17642750328074,-0.0043234555090996,-0.0065360474461094,-0.107735424868516,-0.0164036988433485,0.102303130181789,-0.618238878546505,-0.206615395570747,-0.0496993926816614,0.367102064068524
8.55,3,0.698670410270496,-0.0812707907345805,-0.211121962136703,0.151763461205888,-0.0176498713136184,-0.0504572690003154,0.0165918963184505,-0.143732006795455,-0.00993886125268309,0.0043895789462976,-0.0674815108696758,-0.0184128340505183,0.0970132552059491,-0.601433352661723,-0.215862503941974,-0.0499333679209774,0.404599139378033
8.58,3,0.664332000691753,-0.121346680094811,-0.22123376160975,0.14915412864569,-0.0098117007965331,-0.0517288735618152,0.0173650318918424,-0.164688049968973,-0.0118310088401949,0.0443535671051159,-0.117425051627145,0.00847397279783522,0.0912249112420016,-0.572842595700959,-0.226660969878231,-0.0556708477024649,0.442503128147221
8.61,3,0.618218532873521,-0.165323852249723,-0.232744326100447,0.140222378205715,-0.0385906552323984,-0.0531022064882351,0.0268054241564175,-0.180008341725923,-0.0148421684418266,-0.06559444970041,-0.215948973052156,-0.0313221635588651,0.0812148401338745,-0.536779890336823,-0.227586697999003,-0.054322946867275,0.491571804966379
8.64,3,0.581616667175309,-0.134754478591266,-0.234590695923744,0.12681457970926,-0.0475427513453576,-0.0487736645608895,0.0152490819015066,-0.154779707225766,-0.0115054780724509,-0.0369019643747266,-0.231508326466669,0.0138655761385947,0.0680308440402437,-0.513356934313995,-0.249270098981699,-0.0517797377442752,0.533865372681865
8.67,3,0.510900194301177,-0.250058493809829,-0.238725953957742,0.108325449385052,-0.0736055584378592,-0.0427055675934121,0.0611489201534064,-0.157750175481429,-0.010915453555915,0.054053366700237,-0.587074393953266,0.0460117394533118,0.0443128757591479,-0.466343170466221,-0.24273405153559,-0.0457116407767978,0.560691142511267
8.7,3,0.427884762108219,-0.288750877407147,-0.199362163151952,0.0749076815088351,-0.12849309773044,-0.0355693227942747,-0.0247301655120497,-0.194006164738914,-0.00778221991637928,-0.000356049277219967,-0.707088432467625,-0.0206406852422661,0.0021312092450738,-0.425585701061027,-0.178543453271076,-0.02183090711183,0.598635822626423
8.73,3,0.373348185674612,-0.196971546576332,-0.173284096804712,0.0372783593249306,-0.116392508723207,-0.00477614673299356,0.0204575741854101,-0.130914232815536,0.00379446801151565,0.0414390494501582,-0.587979776401054,-0.0507065034943693,-0.0339518417920469,-0.407218644774723,-0.179947304706971,0.00267036957914975,0.6080100914538
8.76,3,0.284925890886156,-0.30082603432315,-0.10595009206417,0.0156712546159246,-0.0714997812840154,0.00598162785729545,-0.0209255246640421,-0.174860886460972,-0.0114444410534989,0.0156509089429406,-0.794747764519181,-0.100146488845485,-0.0771660512100589,-0.362030905077263,-0.0939715770948413,0.0114088361257769,0.61169774468215
8.79,3,0.212240974150822,-0.249020864487645,-0.0332702617470829,-0.0175888342946664,-0.122953988260547,0.0172073529262164,-0.0580970692058067,-0.139907020274463,-0.0137028107547227,0.0525783054088972,-0.601997945087029,-0.0619017100538143,-0.119642729982401,-0.331787062186549,-0.0130568356374808,0.0399690745770643,0.60348317921486
8.82,3,0.166615802484207,-0.153691213721122,0.0160323903113905,-0.0470391959390037,-0.0780816064943388,0.0471917884863837,-0.00662251655629139,-0.169123406679484,-0.00375377666554765,0.0893022451450138,-0.360515152439955,0.0642668945382041,-0.148309783216854,-0.314854375845617,0.0254219183935057,0.0631784010335602,0.587730541907
8.85,1,0.154408398693808,-0.0308236945707572,0.0211391542303741,-0.0457218136132898,0.0257271034882656,0.054572181361329,-0.0553300576799829,-0.164586321604053,-0.0240791039765618,0.0712708924629454,-0.0305693736584572,0.0476037883643096,-0.160456149988301,-0.314747561062451,0.0137078971729687,0.0550909960224209,0.575482446770633
8.88,1,0.145303710033469,-0.011144342376985,0.00452182582069358,-0.0333872493667409,0.0447706534012879,0.0415865555792922,-0.0489415163630075,-0.137567267881303,-0.0210069073559781,0.0343994465976948,0.195633818577634,-0.0420138147119561,-0.167790765099033,-0.313033438113549,0.00792972604551327,0.0193283893347982,0.573778496658223
8.91,1,0.141911069063387,0.00634276355276142,0.00667846715699739,-0.0358185572883287,-0.0259915972370576,0.0127007863602608,-0.0517492192347992,-0.145257932269255,-0.0168970814132104,0.0119429100416069,0.199723298847418,0.0336975208797469,-0.170573035879594,-0.312387462996307,0.0022227647735018,0.0391857661671804,0.588661356446018
8.94,1,0.136595761996317,-0.00280770287179174,-0.00125634530676188,-0.0396893215735343,0.00838750368765323,0.0403352966907763,0.0154525386313466,-0.184525081128371,-0.0173650318918424,-0.0199540187790562,0.304188156783756,-0.0224005859553819,-0.160583310444451,-0.297067171239357,0.00103254290393791,0.0371359396140426,0.618355866166163
8.97,1,0.136392305266477,0.00659708446506139,-0.00237535732088178,-0.0275582140568255,0.0368307545192826,-0.00251777703176977,-0.0224717958108259,-0.160964791812901,-0.0131127862381868,-0.0409202347890662,0.312316253140863,-0.0190181178217922,-0.136366873175247,-0.272677795749789,-0.0054424675232195,-0.00518814661091952,0.65154474522131
9,1,0.134016947945596,-0.00625120802433342,-0.00404370250556963,-0.0171717479984944,0.043031098361156,0.00021362956633198,0.010386466058331,-0.159683014414909,-0.0076398002054913,-0.0136722922452467,0.270170191554511,0.00145980203660187,-0.110894090599282,-0.244799137343465,-0.00509659108249153,-0.010605182042909,0.67426577552619
9.03,1,0.134973194575844,-0.000422172714417961,-0.00885036774803919,-0.000854518265327921,0.0483972696106856,-0.0183365377768283,-0.0171412294890184,-0.161086865850805,-0.010427157404299,0.0054526403597115,0.221070996225878,-0.00583412172816146,-0.0886511836095258,-0.223542995493433,-0.0137485885189367,-0.0365103101697846,0.680562761314737
9.06,1,0.135110527868486,-0.00335703604235969,-0.0167037975198625,0.00390128279468164,0.00810266426587725,-0.022044536678162,-0.00147506129133986,-0.154576250495926,-0.0133772799869788,0.00859604683573921,0.0896277759127578,-0.00304676452935372,-0.0743634347565132,-0.209387493514817,-0.0190588091677602,-0.010681478316599,0.680852687154759
9.09,1,0.127287616606138,-0.0246843877478357,-0.0146946623126926,0.00597145502080345,0.00779239275287128,-0.0119988606423129,0.00696839299701936,-0.156814274524166,-0.0159204891099785,0.00117496261482589,-0.0369273964659566,0.00658691162856939,-0.0717388429415774,-0.198955249692272,-0.00992360199794509,-0.00959807123020112,0.689158808150477
9.12,1,0.113864558854946,-0.0369223100477106,-0.00551876379690949,0.00686666463209937,0.000345876440727968,-0.00933357748140914,-0.0235501164789778,-0.162917976419365,-0.0148014770958586,-0.00372834457431766,-0.0236264127526678,-0.00578834396394747,-0.0747194840337331,-0.188492487360251,-0.0011342712688579,-0.00564592425305948,0.688248339284443
9.15,1,0.0930102440463474,-0.0581682790612506,0.0097760958688111,0.00695313374228136,0.000152592547379986,-0.00705486210720135,-0.00464898627684357,-0.159744051433861,-0.011179947304707,0.000335703604235969,0.0134128849147008,-0.00833155308694723,-0.0742973113193152,-0.167221086255481,0.0160832544938505,-0.0053865169225135,0.688594215725171
9.18,1,0.076031779941201,-0.0481175166071556,0.0175634022034364,0.00812809635710725,0.00671915850296538,-0.00659708446506139,-0.011139255958739,-0.160761335083061,-0.0133365886410108,-0.00498468988107954,0.0691193375448877,-0.0128126875616728,-0.0718609169794814,-0.147811314228746,0.0174006368195644,-0.00995920692566708,0.689764091921751
9.21,1,0.0611234880621764,-0.043005666269926,0.0169377727591784,0.0114342682170069,0.010396638894823,-0.0115919471826329,-0.00468967762281157,-0.159947508163701,-0.0128482924893948,-0.000940987375509913,0.0798008158614867,-0.00603249203975545,-0.0671559801019318,-0.128167566962696,0.0175939207129124,-0.0161392050945565,0.69375693024486
9.24,1,0.0441399375387839,-0.0508285775322733,0.0226091291034679,0.0155898719239886,0.0142674031800287,-0.0176346120588804,-0.00863673818170721,-0.161351359599597,-0.011017181920835,0.00560523290709148,0.0728222500279753,-0.00713115838089134,-0.0626595863724682,-0.106707968382824,0.0258033997619556,-0.0235450300607318,0.700033570360424
9.27,1,0.0278837448245694,-0.0498163803013194,0.0306100650044252,0.0195267596463922,0.0137384156824447,-0.02198349965921,-0.00912503433332316,-0.162002421135085,-0.010752688172043,0.0135959959715567,0.0997395753858048,-0.00899278745892717,-0.0577511927650787,-0.0855484684794661,0.0316120893988871,-0.0244605853450118,0.711986653238523
9.3,1,0.0171615751620024,-0.0319732250943531,0.0266986093732515,0.0252337209184037,0.022141178624836,-0.0280821151361634,-0.00521866512039552,-0.160639261045157,-0.0102237006744591,0.0291706086408073,0.175862910855434,-0.00876898505610319,-0.0492772199672435,-0.0663624988555559,0.0239672027751498,-0.0353455203914508,0.731671091850541
9.33,1,0.00793481246375927,-0.0274717449466435,0.0204270556759341,0.0353607796461888,0.0363526312041587,-0.0469781589200517,0.000742617063915932,-0.159703360087893,-0.0117903174942269,0.0400148523412783,0.200537125766778,-0.000859604683573921,-0.0375377666554765,-0.0454217149367758,0.0198624632506282,-0.054658650471511,0.733268227179785
9.36,1,-0.00426750490839361,-0.0378480381684825,0.0242723878699098,0.0425834935555081,0.0195725374106062,-0.0535447248756371,0.000946073793755913,-0.162327951902829,-0.010834070863979,0.0575629952899767,0.186702068137659,-0.00704468927070935,-0.0262052268033896,-0.021774956511124,0.0266579180272835,-0.0521001820937732,0.737703583890296
9.39,1,-0.0160934273303425,-0.0379548529516485,0.0297758924120813,0.0513880835393333,0.0334177678762169,-0.064968820256152,0.00696839299701936,-0.159825434125797,-0.0131941689301228,0.0612353892635884,0.224733217362997,-0.00532547990356151,-0.0139316995757927,0.00228888821069979,0.0308186081525112,-0.0663624988555559,0.738848027995646
9.42,1,-0.0264646341339356,-0.032380138554033,0.0305185094759972,0.0627714875738802,0.0370443840856146,-0.0797550380972727,0.00664286222927539,-0.161921038443149,-0.0114037497075309,0.0776085695974609,0.260790836308888,-0.0136417737357707,0.000793481246375927,0.0274056215094455,0.0316832992543311,-0.0807570624917346,0.733476770327871
9.45,1,-0.0356252733949807,-0.0284737693411054,0.0363119398581907,0.0750094098737551,0.0417798394726402,-0.0923642689291055,0.00580868963693147,-0.160293384604429,-0.0147811314228746,0.104159672841578,0.310871710358999,-0.00916572567929116,0.0177465132602924,0.0535650705486211,0.0364594459873246,-0.0941394288969593,0.734224473810032
9.48,1,-0.0415000864691102,-0.0189875993123163,0.0346283354187648,0.0876338999603259,0.0403149510177923,-0.105614388459934,0.00949125644703513,-0.164565975931069,-0.0149845881527146,0.127740307830032,0.345433922340566,-0.000132246874395988,0.0376394950203965,0.0793430382193467,0.0349131748405408,-0.105370240384126,0.729427981404055
9.51,1,-0.0448672953479619,-0.00992360199794509,0.0340891750846889,0.102796512751651,0.0514440341400393,-0.122104556413465,0.00686666463209937,-0.167149876400037,-0.0170598467970824,0.127847122613198,0.386679687897376,-0.00393180130415764,0.0597196366262805,0.104790388704082,0.0335500147506129,-0.12556840723899,0.730969166132593
9.54,1,-0.0452792952258878,-0.000467950478631957,0.0291095716218553,0.114973398032573,0.0359304584897407,-0.12694174016541,0.021637623218482,-0.173233232622252,-0.0199082410148422,0.179250465407269,0.414237901954202,0.0169021678314564,0.0839106418042543,0.129403566596474,0.0281889299193294,-0.12666198716188,0.727134006775109
9.57,1,-0.0455030976287118,0.000152592547379986,0.0280414237901954,0.123477889339885,0.0184382661417483,-0.124744407483139,0.00947091077405113,-0.188166956592507,-0.0240180669576098,0.180730613116855,0.423647775709301,0.0389416180913724,0.108930733156326,0.154703410952076,0.0279244361705374,-0.125624357839696,0.708863592435479
9.6,1,-0.0446333201086459,0.00286873989074374,0.0273801894182155,0.125425987528102,0.00144962920010987,-0.112852361623992,0.00658182521032339,-0.206376333913185,-0.0441602832117679,0.223222551143935,0.486180201625619,0.160105187129327,0.136087120171717,0.180949329101433,0.0270292265592415,-0.1128421887875,0.658833582567827
9.63,1,-0.0344960885443688,0.0309457686086612,0.0165918963184505,0.122124902086449,-0.0129347615995768,-0.0985849584439629,-0.0139673045035147,-0.226518550167343,-0.0510371206803593,0.26118249051383,0.690989918719036,0.34876043987345,0.170547603788364,0.205272581153803,0.0086825159459212,-0.100024414807581,0.490854619993693
9.66,1,-0.0144606870733767,0.0530411694692831,-0.00535091199479151,0.11190120141199,-0.0442162338124739,-0.0725374106061993,0.0229397462894579,-0.210832036296681,-0.0299590034689372,0.226584673604541,0.694285917742444,0.393780327768792,0.21561326944792,0.230277413251137,-0.0121565396079389,-0.0731274351227353,0.246691284930977
9.69,1,0.0284330779951374,0.123508407849361,-0.0583412172816146,0.0863266904711041,-0.0956551815342672,-0.0284432508316294,-0.0660725730155339,-0.187739697459843,-0.0200913520716982,0.218502355011648,0.557568081708223,0.524725079093804,0.253237505213579,0.224890896328623,-0.0737479781487472,-0.0133721935687328,0.0807672353282266
9.72,1,0.0514389477217933,0.0611641794081444,-0.0696584978789636,0.0634428947823522,-0.0622628457492803,0.0010783206681519,-0.259865108188116,-0.10930712810653,0.0183619698680583,0.123259173355307,-0.266680908637755,0.182785526088239,0.261619922482986,0.210277616707867,-0.0685852636290577,-0.00625629444257942,0.0275734733115635
9.75,1,0.0507217627491073,-0.011144342376985,-0.0344706564531388,0.0579495630766727,-0.00694296090578936,-0.0144403414003927,-0.168919949949644,-0.133416750592568,0.0102237006744591,0.0776594337799209,-0.739468571021658,-0.143843907996867,0.228166549679047,0.177526169621876,-0.0273089795627715,-0.0423495183161921,0.011276589251381
9.78,1,0.0481632943713696,-0.0160883409120965,-0.0210628579566841,0.0515457625049593,-0.0300658182521032,-0.0333872493667409,-0.0951872310556352,-0.148269091870886,0.000396740623187963,0.0662149927264219,-0.875815098523921,-0.323491114027324,0.178787601346884,0.130644652648498,-0.0203761914934741,-0.0299539170506912,0.00392671488591164
9.81,1,0.0444196905423139,-0.0175634022034364,-0.0197810805586922,0.0361796929837947,-0.0500096641946674,-0.00141911069063387,-0.0645873388877021,-0.157119459618926,-0.000193283893347982,0.00668355357524339,-0.983413190099796,-0.405896176030763,0.122745445112461,0.0783918780073448,-0.0183467106133203,0.00487787509791355,0.00210069073559781
9.84,1,0.0412508519750562,-0.0147200944039226,-0.0170649332153284,0.0314391511785231,-0.00641397340820541,-0.00302641885636972,-0.054658650471511,-0.172683899451684,0.00234992522965178,-0.0596229946796065,-1.08972950427768,-0.498840296639912,0.0603147475610625,0.0191859696239102,-0.0168919949949644,-0.0195267596463922,0.00172429578539384
9.87,1,0.0391043834752444,-0.00985239214250109,-0.0179499699901324,0.0304116946928312,-0.00585446740114546,-0.0159154026917325,-0.0429191971597441,-0.186213771986043,-0.00253303628650777,-0.115009002960295,-1.16915392518896,-0.568310597043774,-0.0075889360230313,-0.0465508997873877,-0.0181992044841863,-0.0237383139540798,0.00167851802117985
9.9,1,0.0352183599353008,-0.0130364899644968,-0.0162663655507065,0.0234382152775658,-0.0265765353353476,-0.011220638650675,-0.0303862626016012,-0.201798557491785,-0.00595110934781945,-0.179189428388318,-1.29239783928953,-0.555798008158615,-0.0813826919359925,-0.116529842015849,-0.0150914029358806,-0.00387076428520564,0.00167851802117985
9.93,1,0.0286111026337474,-0.0193639942625202,-0.0117140212205369,0.0192368338063702,-0.0065411338643554,-0.00146997487309386,-0.010366120385347,-0.225989562669759,-0.0101219723095391,-0.238339386171046,-1.43620614235867,-0.453444013794366,-0.163757235429955,-0.192271696117028,-0.00809757784763126,-0.0086621702729372,0.00167851802117985
9.96,1,0.0123447370830409,-0.0449588508763899,0.00350962858973968,0.0188299203466903,-0.000162765383871985,-0.00929288613544115,0.0552690206610309,-0.244727927488021,-0.00676493626717938,-0.290108951078829,-1.23245948667867,-0.27907142348501,-0.244493952248706,-0.256777652312794,0.0117699718212429,-0.0163274025696585,0.00167851802117985
9.99,1,-0.00268562883388775,-0.0389975686920784,0.022105573697114,0.0163579210791345,-0.00736004720196132,-0.00565101067130548,0.0887376527197078,-0.237220374156926,-0.0189723400575783,-0.348719748527482,-0.99811802524898,-0.166152938423821,-0.312519709870703,-0.309656056398206,0.0225582649210079,-0.00861130609047721,0.00167851802117985
10.02,1,-0.00895718253120518,-0.0121361939349549,0.0164138716798405,0.0163274025696585,0.000147506129133986,-0.00727866451002533,0.0789717296873887,-0.210242011780145,-0.0267443871374655,-0.314493240150151,-0.715226701661224,-0.176305429242836,-0.362371695099745,-0.353175450910978,0.0124464654479609,-0.0138706625568407,0.00167851802117985
10.05,1,-0.0146081932025107,-0.011154515213477,0.0119581692963449,0.0155746126692506,-0.00502538122704754,-0.011302021342611,0.0730307931760613,-0.186010315256203,-0.0301014231798252,-0.286640013835058,-0.543493962421542,-0.200715150405388,-0.399492375459049,-0.384655293435469,0.0139673045035147,-0.0115665150914029,0.00167851802117985
10.08,1,-0.0197861669769382,-0.011012095502589,0.0158136743268125,0.0138859218115787,-0.00250251777703177,-0.00473036896877956,0.0786055075736768,-0.171870072532324,-0.032603940956857,-0.279615670237332,-0.359874263740959,-0.14938301746676,-0.426399527980387,-0.406409904273609,0.0176905626595864,-0.00807723217464726,0.00167851802117985
10.11,1,-0.0222785119174779,-0.0032654805139317,0.0176142663858964,0.0139927365947447,0.000152592547379986,-0.00736004720196132,0.0737632374034852,-0.164098025452437,-0.0334177678762169,-0.281797743664866,-0.168090863775547,-0.0818099510686565,-0.441663869136631,-0.419120863470361,0.0160323903113905,-0.0120548112430189,0.00167851802117985
10.14,1,-0.0233110548214159,5.59506007059949e-05,0.0144505142368847,0.0133416750592568,-0.00393180130415764,-0.0101474044007691,0.0587888220872626,-0.160883409120965,-0.0346995452742088,-0.275042980234179,-0.0182704143396303,-0.0879543443098239,-0.446002583900469,-0.422462640257983,0.0141911069063387,-0.010864589373455,0.00167851802117985
10.17,1,-0.0240943632312998,0.000152592547379986,0.0145420697653127,0.0115919471826329,-0.00359609769992167,-0.00396740623187963,0.043224382254504,-0.15673289183223,-0.0389517909278644,-0.229692475152847,0.115070039979247,-0.191132338429924,-0.381033763644317,-0.356730857264931,0.0146997487309386,-0.00511693675547553,0.00167851802117985
10.2,1,-0.0246436964018677,0.000152592547379986,0.0148065635141046,0.0115970336008789,0.000152592547379986,-0.00510167750073753,0.0303659169286172,-0.159092989898373,-0.0404777164016643,-0.17027293720308,0.226233710745567,-0.354945524460585,-0.290353099154637,-0.2654805139317,0.0150608844264046,-0.00961333048493912,0.00167851802117985
10.23,1,-0.0227566352326019,0.00768557796970529,0.0131229590746788,0.0115410830001729,0.000152592547379986,-0.0076245409507533,0.0171615751620024,-0.162836593727429,-0.0415356913968322,-0.100207525864437,0.3260648416598,-0.50536617124953,-0.232464573096917,-0.209453616952015,0.010549231442203,-0.00961333048493912,0.00167851802117985
10.26,1,-0.0230363882361319,0.00122582679728589,0.0117089348022909,0.010961231320129,0.0022024191005178,-0.0043641468550676,-0.010874762209947,-0.169448937447228,-0.0472731711783197,-0.0305134230577512,0.390102847376934,-0.54577267779575,-0.188858709473963,-0.165608691671499,0.0131280454929248,-0.010915453555915,0.00167851802117985
10.29,1,-0.0233822646768598,0.000152592547379986,0.0140588600319427,0.00915555284279916,-0.00680562761314737,-0.00414034445224362,-0.116163619902137,-0.166885382651245,-0.0601723278501745,0.0310780154830571,0.332280444756411,-0.416445407472966,-0.163340149133783,-0.139703563544623,0.0141911069063387,-0.00359101128167567,0.00167851802117985
10.32,1,-0.0257779676707256,-0.00638345489872941,0.0155796990874966,0.00915555284279916,0.000137333292641987,-0.00336720887885169,-0.213395591092664,-0.152521337524542,-0.0402335683258563,0.0676849675995158,0.166158024842067,-0.355311746574297,-0.148091067232276,-0.122084210740481,0.0182704143396303,-0.0075533310953093,0.00167851802117985
10.35,1,-0.0265154983163956,-0.00086977752006592,0.0193690806807662,0.00858587399924721,-0.00393180130415764,-0.0053865169225135,-0.163528346608885,-0.161554816329437,-0.0195013275551622,0.102526932584613,0.0581174148787907,-0.466439812412895,-0.143340352590513,-0.116616311126031,0.0178940193894264,-0.0065004425183874,0.00167851802117985
10.38,1,-0.0243639433983378,0.00715659047212134,0.0125075024669128,0.00552385021515549,-0.010666219061861,0.00138350576291187,-0.0496332692444634,-0.148533585619678,-0.0103050833663951,0.17238380077517,0.0671407208471938,-0.776223029267251,-0.142114525793227,-0.117526779992065,0.010925626392407,0.00410982594276762,0.00167851802117985
10.41,1,-0.022273425499232,0.00622068951485743,0.0128025147251808,0.00425733207190161,-0.00065106153548794,2.03456729839981e-05,-0.043285419273456,-0.15052746157211,-0.00114953052359589,0.203721223588773,0.00388093712169764,-0.987034719890947,-0.151987263608712,-0.129500208543148,0.011190120141199,-0.00203965371664581,0.00183619698680583
10.44,1,-0.0208695740633361,0.0032502212591937,0.00953194779300312,0.000661234371979939,-0.0150201930804366,0.00280770287179174,-0.0369375693024486,-0.150771609647918,0.0183823155410423,0.210949023916339,-0.0585650196844386,-1.02408927681305,-0.160781680756045,-0.139678131453393,0.010539058605711,0.00943530584632913,0.00774661498865729
10.47,1,-0.0208339691356141,0.000239061657561978,0.0121361939349549,-0.00342315947955769,-0.0142470575070447,0.00961841690318512,-0.0332143111463769,-0.157546718751589,0.0283516953032014,0.190537227495142,-0.0559862056337168,-0.91654204941964,-0.165898617511521,-0.144825586718345,0.0126499221778008,0.0120955025889869,0.0320291756950591
10.5,1,-0.0228939685252439,-0.00566626992604348,0.0157221187983846,-0.0086723431094292,-0.0179448835718863,0.0133925392417168,-0.0391552476577044,-0.149957782728558,0.0312814722128971,0.160390026551103,-0.032756533504237,-0.742764570045066,-0.172490615558336,-0.149347412539038,0.0173802911465804,0.0197454756309702,0.0582191432437106
10.53,1,-0.0229855240536719,-0.000946073793755913,0.0133772799869788,-0.0137892798649047,-0.0146794030579546,0.0207322407706941,-0.0355540635395367,-0.147150079856766,0.0282296212652974,0.150802128157394,-0.0149184647155166,-0.655145929339478,-0.177058219143244,-0.153838719850256,0.0134739219336528,0.0240028077028718,0.0783766187526068
10.56,1,-0.0238807336649678,-0.00157170323801386,0.0167750073753065,-0.0153406374299346,-0.00171412294890184,0.0196793521937722,-0.0392162846766564,-0.158340199997965,0.0235501164789778,0.150975066377758,0.0184586118147323,-0.586896369314656,-0.17792799666331,-0.153803114922534,0.0158340199997965,0.0144199957274087,0.125456506037578
10.59,1,-0.0239824620298878,0.000127160456149988,0.0148726869513026,-0.0204321420941801,-0.021352783796706,0.02183090711183,-0.0427767774488561,-0.149489832249926,0.0188706116926583,0.15210425122837,0.00537125766777551,-0.548926257108269,-0.185710216579689,-0.161488692892239,0.0148014770958586,0.0312967314676351,0.188319549139887
10.62,1,-0.0241147089042838,0.000152592547379986,0.0146081932025107,-0.0286568803979614,-0.0264697205521816,0.0380870998260445,-0.0390128279468164,-0.155898719239886,0.0189723400575783,0.167592394787439,0.0054678996144495,-0.593539231543931,-0.192337819554226,-0.168039999593087,0.0148014770958586,0.0440687276833399,0.25958026876634
