time,Mode,Knee_Angle,Knee_Velocity,Knee_Current,Ankle_Angle,Ankle_Velocity,Ankle_Current,Acc_X,Acc_Y,Acc_Z,Gyro_X,Gyro_Z,Gyro_Y,Shank_Angle,Thigh_Angle,Knee_Ref_Torque,Ankle_Ref_Torque,Filtered_Vertical_Load
0,1,0.0535345520391451,0.000152592547379986,-0.0319325337483851,0.00320444349497971,0.000152592547379986,-0.0021464684998118,-0.00523901079337952,-0.160171310566525,-0.010732342499059,0.00487278867966755,0.00348419649850968,0.000910468866033916,-0.0294401888078453,-0.0828424939725944,-0.0320444349497971,-0.00228888821069979,0.517955056408378
0.03,1,0.0535192927844071,0.000152592547379986,-0.0319477930031231,0.00316883856725771,0.000152592547379986,-0.00240587583035778,-0.0054424675232195,-0.159764397106845,-0.010427157404299,0.00455234433016958,0.00168869085767184,-0.0011393576871039,-0.0292875962604653,-0.0826848150069684,-0.0320444349497971,-0.00228888821069979,0.518723105563524
0.06,1,0.0535192927844071,0.000152592547379986,-0.032100385550503,0.00305185094759972,0.000152592547379986,-0.00250251777703177,-0.00554419588813949,-0.160985137485885,-0.0102237006744591,0.00449639372946359,-0.000127160456149988,-0.000915555284279916,-0.0294910529903053,-0.0828882717368084,-0.0320444349497971,-0.00228888821069979,0.521149327066866
0.09,1,0.0535396384573911,0.000152592547379986,-0.0320190028585671,0.00305185094759972,0.000152592547379986,-0.00226345611946979,-0.00523901079337952,-0.160578224026205,-0.0100202439446191,0.0043234555090996,0.00205491297138381,0.000595110934781945,-0.0294045838801233,-0.0828119754631184,-0.0320444349497971,-0.00228888821069979,0.520701722261218
0.12,1,0.0535599841303751,0.000152592547379986,-0.0319783115125991,0.00305185094759972,0.000152592547379986,-0.00205491297138381,-0.00550350454217149,-0.160456149988301,-0.010691651153091,0.00457269000315358,0.0011139255958739,-0.000940987375509913,-0.0295215714997813,-0.0830408642841884,-0.0320444349497971,-0.00228888821069979,0.519043549913022
0.15,1,0.0535548977121291,0.000152592547379986,-0.0320139164403211,0.00305185094759972,0.000152592547379986,-0.00233975239315978,-0.00495417137160354,-0.160435804315317,-0.0114647867264829,0.00412508519750562,0.00157170323801386,-0.0011139255958739,-0.0291248308765933,-0.0825423952960804,-0.0320444349497971,-0.00228888821069979,0.518936735129856
0.18,1,0.0534328236742251,0.000152592547379986,-0.0320240892768131,0.00305185094759972,0.000152592547379986,-0.00242113508509578,-0.00586972665588346,-0.161473433637501,-0.010752688172043,0.0043387147638376,0.00370799890133366,-0.00076296273689993,-0.0293588061159093,-0.0827356791894284,-0.0320444349497971,-0.00228888821069979,0.521362956633198
0.21,1,0.0535192927844071,0.000152592547379986,-0.0320495213680431,0.00305185094759972,0.000152592547379986,-0.0021719005910418,-0.00509659108249153,-0.159947508163701,-0.00991851557969909,0.00428276416313161,0.0022278511917478,0.000116987619657989,-0.0293282876064333,-0.0827356791894284,-0.0320444349497971,-0.00228888821069979,0.521464684998118
0.24,1,0.0534124780012411,0.000152592547379986,-0.0320240892768131,0.00292469049144973,0.000152592547379986,-0.00201930804366181,-0.00481175166071556,-0.160334075950397,-0.011240984323659,0.0022024191005178,0.00181076489557583,-0.00144454278186387,-0.0287636951811274,-0.0821609139276304,-0.0320444349497971,-0.00228888821069979,0.520340586565752
0.27,1,0.0535142063661611,0.000152592547379986,-0.0320088300220751,0.00289925840021973,0.000152592547379986,-0.00203965371664581,-0.00536108483128351,-0.160171310566525,-0.0118513545131789,0.00198370311593982,0.0011393576871039,-0.000971505884985911,-0.0288247322000793,-0.0822321237830744,-0.0320444349497971,-0.00228888821069979,0.519816685486414
0.3,1,0.0535548977121291,0.000152592547379986,-0.0318969288206631,0.00289925840021973,0.000152592547379986,-0.0021515549180578,-0.00591041800185146,-0.160171310566525,-0.010895107882931,0.00344350515254168,0.00246691284930977,-0.000798567664621927,-0.0290281889299193,-0.0824355805129144,-0.0320444349497971,-0.00228888821069979,0.523082166000346
0.33,1,0.0534073915829951,0.000152592547379986,-0.0319121880754011,0.00289925840021973,0.000152592547379986,-0.0021668141727958,-0.00536108483128351,-0.159744051433861,-0.0100609352905871,0.00337229529709769,0.00172938220363984,-0.000595110934781945,-0.0292977690969573,-0.0825576545508184,-0.0320444349497971,-0.00228888821069979,0.520132043417666
0.36,1,0.0534073915829951,0.000152592547379986,-0.0320088300220751,0.00289925840021973,0.000152592547379986,-0.00246182643106377,-0.00477106031474756,-0.160964791812901,-0.010467848750267,0.00320444349497971,0.00138859218115787,-0.000671407208471938,-0.0289468062379833,-0.0822829879655344,-0.0320444349497971,-0.00228888821069979,0.52038127791172
0.39,1,0.0534073915829951,0.000152592547379986,-0.0320495213680431,0.00289925840021973,0.000152592547379986,-0.00235501164789778,-0.00511693675547553,-0.160720643737093,-0.0103050833663951,0.00317901140374971,0.00130720948922188,0,-0.0287636951811274,-0.0821100497451705,-0.0320444349497971,-0.00228888821069979,0.522151351461328
0.42,1,0.0534480829289631,0.000152592547379986,-0.0320546077862891,0.00289925840021973,0.000152592547379986,-0.0021871598457798,-0.00489313435265155,-0.159805088452813,-0.0114851323994669,0.00284330779951374,-0.000203456729839981,5.08641824599953e-05,-0.0285958433790094,-0.0819472843612985,-0.0320444349497971,-0.00228888821069979,0.52137312946969
0.45,1,0.0534379100924711,0.000152592547379986,-0.0319935707673371,0.00289925840021973,0.000152592547379986,-0.00224311044648579,-0.00503555406353954,-0.159967853836685,-0.011261329996643,0.00183619698680583,0.000274666585283975,-0.00237027090263578,-0.0283160903754794,-0.0816777041942605,-0.0320444349497971,-0.00228888821069979,0.521510462762332
0.48,1,0.0534073915829951,0.000152592547379986,-0.0319325337483851,0.00289925840021973,0.000152592547379986,-0.00247199926755577,-0.00530004781233151,-0.160456149988301,-0.011118910285755,0.00138350576291187,0.00266528316090375,-0.000305185094759972,-0.0284839421775974,-0.0818404695781325,-0.0320444349497971,-0.00228888821069979,0.520961129591764
0.51,1,0.0534480829289631,0.000152592547379986,-0.032105471968749,0.00289925840021973,0.000152592547379986,-0.00232957955666779,-0.00534073915829951,-0.160334075950397,-0.010671305480107,0.00281787570828374,0.0022075055187638,-0.000132246874395988,-0.0285856705425174,-0.0819523707795445,-0.0320444349497971,-0.00228888821069979,0.522029277423424
0.54,1,0.0534073915829951,0.000152592547379986,-0.0320139164403211,0.00289925840021973,0.000152592547379986,-0.00204474013489181,-0.00505589973652353,-0.159927162490717,-0.010915453555915,0.00271614734336375,-0.000915555284279916,-0.00226854253771579,-0.0285348063600574,-0.0817896053956725,-0.0320444349497971,-0.00228888821069979,0.521083203629668
0.57,1,0.0534073915829951,0.000152592547379986,-0.0319427065848771,0.00289925840021973,0.000152592547379986,-0.00205491297138381,-0.00521866512039552,-0.160293384604429,-0.011363058361563,0.00196335744295582,0.00101728364919991,-0.00134281441694388,-0.0284534236681214,-0.0817489140497045,-0.0320444349497971,-0.00228888821069979,0.52150028992584
0.6,1,0.0534073915829951,0.000152592547379986,-0.0319630522578611,0.00289925840021973,0.000152592547379986,-0.00205491297138381,-0.00525935646636352,-0.160171310566525,-0.011322367015595,0.00309254229356772,-6.10370189519944e-05,-0.00076296273689993,-0.0286772260709454,-0.0819421979430524,-0.0320444349497971,-0.00228888821069979,0.5240943632313
0.63,1,0.0534073915829951,0.000152592547379986,-0.0320037436038291,0.00289925840021973,0.000152592547379986,-0.00234992522965178,-0.00513728242845953,-0.159805088452813,-0.0114037497075309,0.00277718436231574,0.00152592547379986,-0.00145471561835587,-0.0285551520330414,-0.0818608152511165,-0.0320444349497971,-0.00228888821069979,0.520472833440148
0.66,1,0.0533768730735191,0.000152592547379986,-0.0319732250943531,0.00289925840021973,0.000152592547379986,-0.00229906104719179,-0.00558488723410749,-0.160415458642333,-0.011322367015595,0.00161748100222785,0.00280770287179174,-0.000630715862503942,-0.0285246335235654,-0.0817997782321645,-0.0320444349497971,-0.00228888821069979,0.52033041372926
0.69,1,0.0533667002370271,0.000152592547379986,-0.0320546077862891,0.00289925840021973,0.000152592547379986,-0.00239061657561978,-0.0054221218502355,-0.159764397106845,-0.010345774712363,0.00245165359457177,0.000193283893347982,-0.00231940672017579,-0.0288908556372773,-0.0821558275093845,-0.0320444349497971,-0.00228888821069979,0.521591845454268
0.72,1,0.0534073915829951,0.000152592547379986,-0.0320139164403211,0.00289925840021973,0.000152592547379986,-0.00204474013489181,-0.00489313435265155,-0.160171310566525,-0.0097760958688111,0.00446587521998759,-8.13826919359925e-05,-0.00234992522965178,-0.0289722383292133,-0.0823389385662404,-0.0320444349497971,-0.00228888821069979,0.521663055309712
0.75,1,0.0534073915829951,0.000152592547379986,-0.0319427065848771,0.00289925840021973,0.000152592547379986,-0.00196335744295582,-0.00334686320586769,-0.160334075950397,-0.010996836247851,0.00223802402823979,-0.00721254107282734,0.00174972787662384,-0.0281889299193294,-0.0815454573198645,-0.0320444349497971,-0.00228888821069979,0.52068646300648
0.78,1,0.0533870459100111,0.000152592547379986,-0.0319223609118931,0.00289925840021973,0.000152592547379986,-0.0021973326822718,-0.00375377666554765,-0.159723705760877,-0.011363058361563,0.000722271390931934,-0.0170089826146224,0.00170903653065584,-0.0275683868933175,-0.0808435316019166,-0.0320444349497971,-0.00228888821069979,0.52017782118188
0.81,1,0.0532547990356151,0.000152592547379986,-0.0320444349497971,0.00274666585283975,0.000152592547379986,-0.0022075055187638,-0.00277718436231574,-0.159235409609261,-0.010793379518011,0.000712098554439934,-0.0359609769992167,0.00163782667521185,-0.0280261645354574,-0.0812809635710725,-0.0320444349497971,-0.00171920936714784,0.516698711101616
0.84,1,0.0530004781233151,-6.10370189519944e-05,-0.032237718843145,0.00190232042400382,-0.00550350454217149,-0.00158696249275185,-0.00314340647602771,-0.160863063447981,-0.0117292804752749,-0.00139367859940387,-0.0516373180333872,-0.000579851680043947,-0.0286060162155014,-0.0815454573198645,-0.0320444349497971,0.0010884935046439,0.511795403912473
0.87,1,0.0503860591448714,-0.00768049155145929,-0.0277413251136814,0.000498468988107954,-0.00202439446190781,0.00291960407320373,-0.00704977568895535,-0.160252693258461,-0.010711996826075,-0.00659199804681539,-0.0573239336324147,-0.00476088747825556,-0.0316782128360851,-0.0819828892890204,-0.0265205847346416,0.00292977690969573,0.500086469110182
0.9,1,0.0501113925595874,-0.000528987497583951,-0.0280465102084414,0.000946073793755913,0.000152592547379986,0.000152592547379986,-0.00643940549943541,-0.159642323068941,-0.0115258237454349,-0.00754824467706331,-0.0558997365235349,-0.0127567369609668,-0.0364492731508326,-0.086489455854976,-0.0296232998647013,-0.000305185094759972,0.491744743186743
0.93,1,0.0460524307992798,-0.010884935046439,-0.0268257698294015,0.00133264158045188,0.000152592547379986,0.000152592547379986,-0.00692770165105136,-0.160089927874589,-0.0102643920204271,-0.00985747856074709,-0.0634784997100742,-0.00524918362987152,-0.0395316426079084,-0.0855230363882361,-0.0235297708059938,-0.000701925717947935,0.489649138869391
0.96,1,0.043651641387168,-0.00613422040467544,-0.0210374258654541,0.00139367859940387,0.000152592547379986,0.000152592547379986,-0.0149438968067466,-0.159967853836685,-0.00953194779300312,-0.010396638894823,-0.032227546006653,0.00601214636677145,-0.0441501103752759,-0.0877407147434919,-0.021952981149734,-0.00076296273689993,0.493138421786147
0.99,1,0.0405590990936003,-0.0075889360230313,-0.022258166244494,0.00137333292641987,0.000152592547379986,0.000152592547379986,-0.00859604683573921,-0.160171310566525,-0.011037527593819,-0.00957263913897112,-0.0143945636361787,0.0102847376934111,-0.0484532202113915,-0.0889105909400718,-0.0208136234626301,-0.00076296273689993,0.498173975849686
1.02,1,0.0387076428520564,-0.0043539740185756,-0.021464684998118,0.00137333292641987,0.000152592547379986,0.000152592547379986,-0.0097760958688111,-0.160415458642333,-0.0102643920204271,-0.0150354523351746,-0.0131941689301228,0.0116580706198309,-0.0492467014577675,-0.0878424431084119,-0.02152572201707,-0.00076296273689993,0.503555406353954
1.05,1,0.0365001373332926,-0.00525935646636352,-0.0179754020813623,0.00137333292641987,0.000152592547379986,0.000152592547379986,-0.00969471317687511,-0.160659606718141,-0.010915453555915,-0.0192470066428622,-0.00718202256335134,0.00774152857041129,-0.0502232937609994,-0.086642048402356,-0.0182398958301543,-0.00076296273689993,0.509974466180405
1.08,1,0.0346995452742088,-0.0053814305042675,-0.0205898210598061,0.00137333292641987,0.000152592547379986,0.000152592547379986,-0.00908434298735517,-0.159520249031037,-0.00900296029541917,-0.0223904131188899,-0.00285856705425174,0.00277718436231574,-0.0511693675547553,-0.0857366659545681,-0.0185552537614063,-0.00076296273689993,0.511215552232429
1.11,1,0.0331736198004089,-0.00319427065848771,-0.0159916989654225,0.00121056754254789,0.000152592547379986,0.000152592547379986,-0.010956144901883,-0.160618915372173,-0.00851466414380322,-0.0238044373912778,0.00173955504013184,0.00503555406353954,-0.0519323302916552,-0.0850042217271442,-0.0173548590553504,-0.000579851680043947,0.508977528204189
1.14,1,0.0317799412010051,-0.00387585070345164,-0.0186976734722943,0.0010681478316599,0.000152592547379986,0.000152592547379986,-0.00818913337605925,-0.160415458642333,-0.0087588122196112,-0.0272428561255735,0.00511693675547553,0.00135298725343588,-0.0521052685120192,-0.0837834813481043,-0.0177617725150304,-0.000305185094759972,0.507624540950753
1.17,1,0.0298776207770012,-0.00446587521998759,-0.0145675018565427,0.0010681478316599,0.000152592547379986,0.000152592547379986,-0.00989816990671509,-0.159764397106845,-0.00863673818170721,-0.0300810775068412,0.00573747978148747,0.00138350576291187,-0.0516067995239112,-0.0813826919359925,-0.0146285388754947,-0.000305185094759972,0.505783257545702
1.2,1,0.0272123376160975,-0.00748720765811131,-0.0143131809442427,0.0010681478316599,0.000152592547379986,0.000152592547379986,-0.00940987375509914,-0.160008545182653,-0.00733461511073133,-0.0358897671437727,0.0190944140954822,-0.000172938220363984,-0.0518509475997192,-0.0789819025238807,-0.0127262184514908,-0.000305185094759972,0.506505528936633
1.23,1,0.0262662638223416,-0.00194301176997182,-0.0133365886410108,0.0010681478316599,0.000152592547379986,0.000152592547379986,-0.00904365164138717,-0.160863063447981,-0.00721254107282734,-0.0352590512812688,0.021566413363038,-0.000183111056855983,-0.0499588000122074,-0.076133508306121,-0.0146997487309386,-0.000305185094759972,0.512426119774977
1.26,1,0.0238451287372458,-0.00732444227423933,-0.0119429100416069,0.0010681478316599,0.000152592547379986,0.000152592547379986,-0.00831120741396323,-0.159886471144749,-0.00660217088330739,-0.0381786553544725,0.0203558458204901,-0.00268562883388775,-0.0487075411236915,-0.0724712871690013,-0.00991851557969909,-0.000305185094759972,0.518611204362112
1.29,1,0.0237128818628498,-0.000396740623187963,-0.0120751569160029,0.0011088391776279,0.000152592547379986,0.000152592547379986,-0.00818913337605925,-0.160781680756045,-0.00473036896877956,-0.0411491236101362,0.0239570299386578,-0.00493382569861955,-0.0473850723797316,-0.0710063987141535,-0.0135196996978668,-0.000305185094759972,0.524521622363964
1.32,1,0.0208644876450901,-0.00772118289742729,-0.011200292977691,0.00131229590746788,0.000152592547379986,0.000152592547379986,-0.00635802280749942,-0.160578224026205,-0.00595110934781945,-0.0380769269895525,0.0136926379182307,-0.00355031993570767,-0.0455743074841558,-0.0663574124373099,-0.0086876023641672,-0.000732444227423933,0.535915199235003
1.35,1,0.0204270556759341,-0.000691752881455936,-0.00991851557969909,0.00149540696432386,0.000152592547379986,0.000152592547379986,-0.00676493626717938,-0.160985137485885,-0.00615456607765943,-0.04320403658152,0.0101117994730471,-0.00352997426272368,-0.0442925300861639,-0.0646280302336701,-0.011200292977691,-0.00076296273689993,0.545233517461674
1.38,1,0.0178228095339824,-0.00659199804681539,-0.0101524908190151,0.00152592547379986,0.000152592547379986,0.000152592547379986,-0.00371308531957966,-0.159805088452813,-0.00452691223893958,-0.043499048839788,-0.000386567786695964,-0.00674459059419538,-0.0422884812972401,-0.0600299081392865,-0.00746686198512731,-0.00076296273689993,0.556738995534125
1.41,1,0.0160018718019145,-0.00180059205908383,-0.00675476343068738,0.00152592547379986,0.000152592547379986,0.000152592547379986,-0.00298064109215573,-0.159479557685069,-0.0054221218502355,-0.0458489740694398,-0.0295012258267973,-0.00164799951170385,-0.0409660125532802,-0.0568865016632588,-0.00791446679077527,-0.00076296273689993,0.567786695964436
1.44,1,0.0136214280627867,0.000122074037903989,-0.00810775068412325,0.00152592547379986,0.000152592547379986,0.000152592547379986,-0.00810775068412325,-0.158828496149581,-0.00473036896877956,-0.0464593442589597,-0.0454013692637918,-0.00140385143589587,-0.0406404817855363,-0.054190699992879,-0.00799584948271126,-0.00076296273689993,0.581357259844763
1.47,1,0.00630715862503942,-0.0123396506647949,-0.00157678965625985,0.00152592547379986,0.000152592547379986,0.000152592547379986,-0.0183619698680583,-0.160700298064109,-0.00180059205908383,-0.0495315408795434,0.00790429395428327,-0.0103152562028871,-0.0443535671051159,-0.0505895158747113,0.000915555284279916,-0.00076296273689993,0.59172338023011
1.5,1,0.00123091321553189,-0.00627664011556342,0.00278735719880774,0.00152592547379986,0.000152592547379986,0.000152592547379986,-0.0114037497075309,-0.159398174993133,-0.00379446801151565,-0.0460219122898038,0.0358490757978047,-0.00890123193049918,-0.0440992461928159,-0.0452182582069358,0.00231940672017579,-0.00076296273689993,0.609302041688284
1.53,1,-0.00464898627684357,-0.010813725190995,0.0054424675232195,0.00313323363953571,0.00784325693533128,-0.00124108605202389,-0.00570696127201147,-0.158787804803613,-0.00159713532924385,-0.043702505569628,0.021546067690054,-0.00697856583351136,-0.043275246436964,-0.0384228034302805,0.00775170140690329,-0.00733461511073133,0.639820551164281
1.56,1,-0.0122684408093509,-0.0168462172307505,0.0103050833663951,0.00341807306131169,0.000295012258267973,-0.00477106031474756,-0.00460829493087558,-0.158014669230221,-0.00053916033407595,-0.0401420127974283,0.00118004903307189,-0.00528987497583951,-0.0424614195176041,-0.0299590034689372,0.0145675018565427,-0.00296029541917173,0.69919939776808
1.59,1,-0.022014018168686,-0.0252388073366497,0.021993672495702,0.00335703604235969,0.000152592547379986,-0.00370291248308766,-0.0100202439446191,-0.159479557685069,-0.000946073793755913,-0.0365306558427686,-0.00200404878892382,0.00210577715384381,-0.0427462589393801,-0.0205186112043621,0.0257983133437096,-0.00228888821069979,0.766675822219509
1.62,1,-0.0302133243812372,-0.0211493270668661,0.0282397941017894,0.00348928291675568,0.000152592547379986,-0.00301115960163172,-0.0122989593188269,-0.161310668253629,0.00283822138126774,-0.022247993408002,0.0246284371471297,0.00132246874395988,-0.0420341603849401,-0.0115766879278949,0.0292570777509893,-0.00265511032441176,0.840611997843359
1.65,1,-0.0375174209824925,-0.0191249326049582,0.0304879909665212,0.0064902696818954,0.0114240953805149,-0.00481175166071556,-0.00741599780266732,-0.161229285561693,0.00267545599739575,-0.00121056754254789,0.032685323648793,-0.00165817234819585,-0.0400809757784763,-0.00238044373912778,0.0315357931251971,-0.010793379518011,0.897061067537461
1.68,1,-0.0454827519557278,-0.0222988575904619,0.0366527298806726,0.00850449130731122,0.00454725791192358,-0.0097659230323191,-0.0114037497075309,-0.161758273059277,0.00161748100222785,0.0155644398327586,0.0372325815607166,-0.0010579749951679,-0.0381379640085045,0.00743634347565132,0.0389110995818964,-0.0123091321553189,0.908312224697612
1.71,1,-0.0536108483128351,-0.0223293760999379,0.0422070986053041,0.00997955259865108,0.00735496078371532,-0.00947091077405113,-0.00180059205908383,-0.161432742291533,0.00121056754254789,0.0263476465142776,0.0500605283771274,-0.00306202378409172,-0.0353709524826807,0.0183212785220903,0.043061616870632,-0.0126855271055228,0.917091382590208
1.74,1,-0.0591753898739586,-0.0146794030579546,0.0469781589200517,0.0125939715770948,0.00799584948271126,-0.0131636504206468,-0.0202337717825861,-0.161514124983469,0.000559506007059949,0.0418307036551002,0.100802636799219,-0.0119632557145909,-0.0313832005778171,0.0278633991515854,0.0456760358490758,-0.0160527359843745,0.914873704234952
1.77,1,-0.0606301054923144,-0.00332651753288369,0.0367341125726086,0.0177312540055544,0.0179245378989024,-0.0188095746737063,-0.00257372763247576,-0.158380891343933,-0.00167851802117985,0.0536922310047711,0.122826827804397,-0.00334686320586769,-0.0227261167231259,0.0379345072786645,0.0378632974232205,-0.0257067578152816,0.911272520116784
1.8,1,-0.0617491175064343,-0.00118004903307189,0.0399080375581123,0.0226549068676819,0.0141504155603707,-0.0268155969929095,-0.00664286222927539,-0.159398174993133,-0.00135298725343588,0.0638650674967701,0.142379019542019,-0.010986663411359,-0.0184535253964863,0.043366801965392,0.0387178156885484,-0.0311390525020091,0.912757754244616
1.83,1,-0.0622577593310343,0.000142419710887987,0.0381379640085045,0.0290536210211493,0.0259305602181056,-0.033071891435489,0.00194301176997182,-0.158543656727805,-0.00171920936714784,0.0715862503941974,0.172348195847448,-0.0043743196915596,-0.00845362712485122,0.053875342061627,0.0381481368449965,-0.0397147536647643,0.912259285256508
1.86,1,-0.0627257098096662,0.000152592547379986,0.0382193467004405,0.0389924822738324,0.0293282876064333,-0.0531632435071871,-0.0125837987406028,-0.162287260556861,-0.00281787570828374,0.076275928017009,0.194077374594358,-0.0022075055187638,2.03456729839981e-05,0.0628477838475702,0.0381481368449965,-0.0572730694499547,0.913622445346436
1.89,1,-0.0631021047598702,0.000152592547379986,0.0384329762667725,0.0448723817662079,0.0191961424604022,-0.0515152439954833,0.00947091077405113,-0.160985137485885,-0.00420138147119561,0.0816777041942605,0.216803491317484,-0.00684631895911537,0.00736513362020732,0.0706910407829015,0.0384838404492325,-0.0500401827041434,0.915260272021648
1.92,1,-0.0634276355276142,0.000152592547379986,0.0386160873236284,0.0560625019074068,0.0405184077476323,-0.0737022003845332,-0.00249234494053977,-0.163019704784285,-0.00147506129133986,0.101769056265959,0.253761406292917,-0.00790429395428327,0.0262764366588336,0.0899075289162877,0.0386059144871364,-0.0768456068605609,0.920570492670471
1.95,1,-0.0636616107669301,0.000152592547379986,0.0386262601601204,0.0663065482548499,0.0307117933693452,-0.0807214575640126,0.000152592547379986,-0.165461185542365,-0.00635802280749942,0.10533972187465,0.296141443118585,-0.0203049816380301,0.0343740145064648,0.098239082003235,0.0386059144871364,-0.0794905443484807,0.918129011912391
1.98,1,-0.0636717836034221,0.000152592547379986,0.0387076428520564,0.0788191371400087,0.0426953947569201,-0.0959400209560432,0.00300098676513972,-0.162816248054445,-0.00859604683573921,0.0970590329701631,0.37036245816421,-0.0200913520716982,0.0518712932727032,0.115797397788425,0.0386059144871364,-0.0988189336832789,0.911465804010132
2.01,1,-0.0636310922574541,0.000152592547379986,0.0387686798710084,0.0921658986175115,0.0465203812779117,-0.110263374736778,0.00849431847081922,-0.163426618243965,-0.00249234494053977,0.121575568915881,0.449120558285267,-0.0173243405458744,0.075685903500473,0.139581489506719,0.0386059144871364,-0.110507522812586,0.902513707897173
2.04,1,-0.0615558336130863,0.00725323241879533,0.0353506068096967,0.107720165613778,0.0467238380077517,-0.128157394126204,-0.00338755455183569,-0.184870957569099,-0.00888088625751518,0.181218909268471,0.532507299010183,0.0188604388561663,0.104688660339162,0.166488642028057,0.0344045330159408,-0.129724010945972,0.888597267576118
2.07,1,-0.0534786014384391,0.0258390046896776,0.0286568803979614,0.119347717724133,0.0343740145064648,-0.126834925382244,-0.0243029063793858,-0.225725068920967,-0.0151066621906186,0.223161514124983,0.718873663543606,0.0800805688650166,0.141717785170039,0.195430361847794,0.0234992522965178,-0.130598874884284,0.842697429324218
2.1,1,-0.0279447818435214,0.0734377066357412,-0.00032553076774397,0.121626433098341,-0.00454725791192358,-0.10966317738375,0.00686666463209937,-0.233008819849239,-0.010589922788171,0.164667704295989,0.856980091758985,-0.00698873867000336,0.191819004893134,0.21998758913948,-0.0125227617216508,-0.10691651153091,0.643828648742129
2.13,1,0.0241604866684978,0.153243608915474,-0.0737123732210252,0.114118879767245,-0.0367035940631326,-0.0786868902656128,-0.0168156987212745,-0.183080538346507,-0.0577511927650787,0.173752047283344,0.67741935483871,0.117364014608193,0.23780022583697,0.213741467533392,-0.0851059500920642,-0.0814539017914365,0.293272703227841
2.16,1,0.0579953408408867,0.097425255083875,-0.0880560726747439,0.0886867885372478,-0.0938037252927234,-0.0295927813552253,-0.14828943754387,-0.127821690521968,0.00263476465142776,0.201320434176661,0.0943225399538153,0.167037975198625,0.261675873083692,0.203741569261757,-0.0892971587267678,-0.0159408347829625,0.107720165613778
2.19,1,0.0660725730155339,0.0157170323801386,-0.054607786289051,0.0686666463209937,-0.0526139103366192,-0.00203456729839981,-0.235368917915382,-0.127129937640512,0.0233873510951059,0.0623900062054303,-0.492670471307515,-0.00169886369416384,0.247281309447513,0.181340983306375,-0.0517899105807672,-0.0175888342946664,0.0418510493280842
2.22,1,0.0658182521032339,-0.010396638894823,-0.0372834457431766,0.0626036357717622,-0.0136010823898027,-0.0197556484674622,-0.181290119123915,-0.151504053875342,0.010691651153091,0.000386567786695964,-0.805190181178218,-0.371908729310994,0.206986704102705,0.141229489018423,-0.0347605822931608,-0.043733024079104,0.0165817234819585
2.25,1,0.0611692658263904,-0.021464684998118,-0.0302947070731732,0.053956724753563,-0.0360525325276447,-0.032532731101413,-0.135390280872016,-0.161554816329437,-0.0138452304656107,-0.0409965310627562,-1.043234555091,-0.583198543249814,0.150812300993886,0.0897040721864477,-0.0273140659810175,-0.0270800907417015,0.00879950356557919
2.28,1,0.0538346507156591,-0.0286873989074374,-0.0209865616829941,0.0382295195369325,-0.0498977629932554,0.000274666585283975,-0.0835495061087883,-0.193945127719962,-0.0252388073366497,-0.0905077262693157,-1.19258196763003,-0.609291868851792,0.0828780989003164,0.0291248308765933,-0.0184738710694703,0.00456760358490758,0.00392671488591164
2.31,1,0.0471409243039237,-0.0252489801731417,-0.0165512049724825,0.0345774712363048,-0.0021261228268278,-0.00733461511073133,-0.0599078341013825,-0.215226701661224,-0.0315052746157211,-0.124718975391909,-1.30390331736198,-0.550360627053641,0.00777204707988728,-0.0391755933306884,-0.0152796004109826,-0.0266223130995615,0.00210577715384381
2.34,1,0.0394400870794804,-0.0257271034882656,-0.0135705638803268,0.0318613238929411,-0.00831120741396323,-0.0179754020813623,-0.0393180130415764,-0.228939685252439,-0.0380158899706005,-0.147455264951526,-1.40010783206682,-0.467665639210181,-0.0733766696167893,-0.112725201167842,-0.011159601631723,-0.0224311044648579,0.00171920936714784
2.37,1,0.0308135217342652,-0.0243842890713218,-0.00901313313191117,0.0267545599739575,-0.0231025116733299,-0.0177312540055544,-0.0065207881913714,-0.236996571754102,-0.0498570716472874,-0.157221187983846,-1.51461327962076,-0.383383688873969,-0.161676890367341,-0.19240902940967,-0.0065004425183874,-0.00985747856074709,0.00167851802117985
2.4,1,0.0146997487309386,-0.043214209418012,0.00245165359457177,0.0208644876450901,-0.0152185633920306,-0.000956246630247912,0.0627765739921262,-0.229509364095991,-0.0664998321481979,-0.100029501225827,-1.25948871323791,-0.251818394522945,-0.244432915229754,-0.259061454105248,0.00973540452284311,-0.00447604805647959,0.00167851802117985
2.43,1,-0.0021668141727958,-0.0448927274391919,0.0208136234626301,0.0203660186569821,-1.01728364919991e-05,-0.00736513362020732,0.10818811609241,-0.201350952686137,-0.0702027446312855,-0.00921658986175115,-1.06307158625039,-0.14798425244911,-0.315418968270923,-0.313079215877763,0.0240180669576098,-0.0171615751620024,0.00167851802117985
2.46,1,-0.0150761436811426,-0.0338348541723889,0.0253201900285857,0.0195115003916542,-0.00620543026011943,-0.0125024160486668,0.145298623615223,-0.180639057588427,-0.0551469466231269,0.0626443271177302,-0.760816268400118,-0.022075055187638,-0.369365520187994,-0.354065574104027,0.0258796960356456,-0.0137028107547227,0.00167851802117985
2.49,1,-0.0263476465142776,-0.0290943123671173,0.0286161890519934,0.0182398958301543,-0.00132246874395988,-0.00460829493087558,0.163446963916949,-0.175593330688396,-0.0245470544551937,0.0668660542619098,-0.445448164311655,0.109022288684754,-0.405072176274911,-0.378490554521317,0.0303353984191412,-0.0133060701315348,0.00167851802117985
2.52,1,-0.0346995452742088,-0.0205796482233141,0.0319935707673371,0.0183111056855983,0.000152592547379986,-0.011007009084343,0.15571560818303,-0.177098910489212,-0.00595110934781945,-0.0177210811690624,-0.125298827071952,0.252469456058433,-0.421399578844569,-0.38649657684052,0.0317595955280211,-0.0158696249275185,0.00167851802117985
2.55,1,-0.0385347046316925,-0.00796533097323527,0.0301421145257932,0.0176803898230944,-0.00454725791192358,-0.0141300698873867,0.121697642953785,-0.179784539323099,0.000803654082867926,-0.0715252133752454,0.145980203660187,0.304706971444848,-0.419721060823389,-0.380952380952381,0.0287382630898974,-0.0141198970508947,0.00167851802117985
2.58,1,-0.0396130252998444,-0.000264493748791976,0.0250760419527777,0.0160222174748985,-0.00298064109215573,-0.00381481368449965,0.0829594815922524,-0.179092786441644,-0.000254320912299977,-0.114495274717449,0.314981536301767,0.246172470269885,-0.405295978677735,-0.365448978138574,0.0246284371471297,-0.00943021942808313,0.00167851802117985
2.61,1,-0.0392976673685924,0.00406913459679963,0.0240689311400698,0.0160222174748985,0.000152592547379986,-0.00821965188553524,0.0583412172816146,-0.181941180659403,-0.00859604683573921,-0.13240963977986,0.458683024587746,0.140008748639383,-0.381674652343313,-0.342153182571897,0.0229804376354259,-0.0134281441694388,0.00167851802117985
2.64,1,-0.0384329762667725,0.00477106031474756,0.0194606362091942,0.0147607857498906,-0.00704977568895535,-0.010478021586759,0.0369782606484166,-0.180110070090843,-0.0146997487309386,-0.126448357595548,0.558905809706921,0.0497960346283354,-0.350545772677796,-0.311919512517675,0.0202846359650461,-0.00818913337605925,0.00167851802117985
2.67,1,-0.0389517909278644,0.000345876440727968,0.0230007833084099,0.0136417737357707,-0.000478123315123956,-0.00401827041433963,-0.0746787926877651,-0.181615649891659,-0.0487177139601835,-0.10355947548855,0.557908871730705,0.117211422060813,-0.316263313699759,-0.277108066042055,0.0234687337870418,-0.010457675913775,0.00167851802117985
2.7,1,-0.0405184077476323,-0.0032146163314717,0.0248115482039857,0.011190120141199,-0.0130619220557268,-0.0053916033407595,-0.368307545192826,-0.162409334594765,-0.0942106387524033,-0.0945158238471633,0.203243100273649,0.368470310576698,-0.292774234239733,-0.252052369762261,0.0251065604622537,-0.00251269061352377,0.0350352488784448
2.73,1,-0.0451470483514918,-0.0122887864823349,0.032664977975809,0.00509659108249153,-0.0176905626595864,0.00607318338572344,-0.0834681234168523,-0.128961048209072,-0.0393587043875444,-0.0915148370820236,0.165298420158493,0.249224321217485,-0.284432508316294,-0.239041311888994,0.0349742118594928,0.00924710837122715,0.0751772616758731
2.76,1,-0.0399690745770643,0.0185552537614063,0.0232652770572019,0.00284839421775974,-0.00716167689036734,0.000885036774803919,-0.065523239844966,-0.140842921231727,-0.0348419649850968,-0.0285348063600574,0.226905117954039,-0.075726594846441,-0.272377697073275,-0.232164474420403,0.0165512049724825,0.00236009806614378,0.0928779971719515
2.79,1,-0.0384533219397565,0.00608335622221544,0.0161341186763105,-0.00181076489557583,-0.0170903653065584,0.00754824467706331,-0.0364289274778486,-0.147556993316446,-0.00700908434298736,-0.0260017700735496,0.173945331176692,-0.10864589373455,-0.258064516129032,-0.219367046113468,0.0192775251523382,0.0115970336008789,0.141819513534959
2.82,1,-0.0367035940631326,0.00719219539984334,0.0211798455763421,-0.0114953052359589,-0.0373037914161606,0.0178635008799504,-0.0487177139601835,-0.156509089429406,-0.00180059205908383,-0.0406099632760603,0.173365479496648,0.0401216671244443,-0.247250790938037,-0.210313221635589,0.0193995991902422,0.0344553971984008,0.190099795525986
2.85,1,-0.0364085818048646,0.00211594999033581,0.0188299203466903,-0.0210781172114221,-0.0244046347443058,0.0370291248308766,-0.0287789544358654,-0.166275012461725,-0.0167343160293385,-0.0398368277026683,0.203355001475061,0.0508336639505193,-0.229875586209703,-0.19327372051149,0.0206610309152501,0.0395723339538764,0.251258888515885
2.88,1,-0.032685323648793,0.0127160456149988,0.0184636982329783,-0.0248013753674937,-0.0100507624540951,0.0311899166844691,-0.0485142572303435,-0.162409334594765,-0.0154728843043306,-0.0476699118015076,0.23530788089643,-0.0360525325276447,-0.214860479547512,-0.181951353495895,0.0148828597877946,0.0277413251136814,0.330230618203274
2.91,1,-0.0301319416893012,0.00968454034038311,0.0134891811883908,-0.0320037436038291,-0.0267850784834335,0.0380565813165685,-0.0373241370891446,-0.152521337524542,-0.0135196996978668,-0.0587989949237546,0.219753613900164,-0.053916033407595,-0.201656137780897,-0.171330912198248,0.0134891811883908,0.0467645293537197,0.39193904436374
2.94,1,-0.0286365347249774,0.0043438011820836,0.0132857244585508,-0.0390840378022604,-0.0179855749178543,0.0485956399222795,-0.0267850784834335,-0.166112247077853,-0.00595110934781945,-0.0482192449720756,0.21947894731488,-0.0391349019847204,-0.188940092165899,-0.160059409365113,0.0145369833470667,0.0490127262184515,0.47682119205298
2.97,1,-0.0267443871374655,0.00668355357524339,0.0152389090650146,-0.0412508519750562,-0.00521866512039552,0.0419324320200201,-0.0331329284544409,-0.163182470168157,-0.00696839299701936,-0.0336924344615009,0.217505417035432,-0.0315154474522131,-0.174942269152908,-0.148004598122094,0.0136519465722627,0.0389721366008484,0.575975829340495
3,1,-0.0259407330545976,0.00252286345001577,0.0123701691742709,-0.0452182582069358,-0.010793379518011,0.0466526281523077,-0.0232042400382499,-0.163426618243965,-0.0065207881913714,-0.0249743135878577,0.205084383678701,-0.0237332275358338,-0.160781680756045,-0.134627318135116,0.0140283415224667,0.0497451704458754,0.635497095655182
3.03,1,-0.0259407330545976,0.000203456729839981,0.0154728843043306,-0.0460524307992798,6.10370189519944e-05,0.0429090243232521,-0.0282092755923134,-0.158543656727805,-0.0087181208736432,-0.0208034506261381,0.200618508458714,-0.0256050294503616,-0.144769636117639,-0.118625446333201,0.0157170323801386,0.0411592964466282,0.672261726737266
3.06,1,-0.0260628070925016,0.000152592547379986,0.0156763410341706,-0.0463677887305317,0.000152592547379986,0.0410473952452162,-0.0263374736777856,-0.157892595192317,-0.00924710837122715,-0.0257067578152816,0.221096428317108,-0.0352895697907448,-0.134708700827052,-0.108401745658742,0.0157170323801386,0.0410473952452162,0.707276629942727
3.09,1,-0.0262560909858496,0.000152592547379986,0.0159815261289305,-0.0465407269508957,0.000152592547379986,0.0411694692831202,-0.0225124871567939,-0.162124495172989,-0.00578834396394747,-0.0287382630898974,0.234860276090782,-0.0269173253578295,-0.121595914588865,-0.0951261940366833,0.0161137730033265,0.0411694692831202,0.770012512588885
3.12,1,-0.0265002390616576,0.000152592547379986,0.0161036001668345,-0.043417666147852,0.0149540696432386,0.0364899644968006,-0.0134790083518988,-0.164240445163325,-0.00460829493087558,-0.0156966867071546,0.245511235897905,-0.0182907600126143,-0.104363129571418,-0.0776492609434289,0.0161748100222785,0.0302234972177292,0.844060589414146
3.15,1,-0.0267647328104495,0.000152592547379986,0.0163172297331665,-0.0352387056082848,0.0316680399995931,0.0224717958108259,-0.0138859218115787,-0.162043112481053,-0.00464898627684357,-0.000854518265327921,0.254147974079613,-0.0122887864823349,-0.0860723695588041,-0.0590533158360546,0.0161748100222785,0.0117394533117669,0.898973560797957
3.18,1,-0.0270088808862575,0.000152592547379986,0.0163782667521185,-0.0262967823318176,0.0262052268033896,0.00166834518468785,-0.0200710063987142,-0.160537532680237,-0.00367239397361166,0.0236823633533738,0.23958047222307,-0.00932849106316314,-0.0749331136000651,-0.0476800846379996,0.0163884395886105,0.00380464084800765,0.915189062166204
3.21,1,-0.0273140659810175,0.000152592547379986,0.0164799951170385,-0.0172633035269224,0.0344045330159408,-0.00032553076774397,-0.0075787631865393,-0.157526373078606,-0.00391654204941964,0.0458184555599638,0.236233609017202,-0.00250251777703177,-0.0592364268929105,-0.0317087313455611,0.0166325876644185,-0.00623594876959543,0.918963184504735
3.24,1,-0.0275582140568255,0.000152592547379986,0.0165817234819585,-0.0064902696818954,0.0336008789330729,-0.00949125644703513,-0.0136824650817387,-0.158950570187485,-0.00717184972685934,0.054099144464451,0.237261065502894,-0.00508641824599953,-0.0468764305551317,-0.0191249326049582,0.0166325876644185,-0.0178533280434584,0.915667185481328
3.27,1,-0.0278227078056174,0.000152592547379986,0.0167037975198625,0.00259407330545976,0.0309050772626932,-0.0166529333374025,-0.010427157404299,-0.156509089429406,-0.00818913337605925,0.0619322285632903,0.244921211381369,-0.00338755455183569,-0.0349538661865088,-0.00690735597806736,0.0169174270861944,-0.0233059684031699,0.912696717225664
3.3,1,-0.0280261645354574,0.000152592547379986,0.0171514023255104,0.0124820703756829,0.0314238919237851,-0.0253710542110457,-0.00534073915829951,-0.160415458642333,-0.00912503433332316,0.0708232876572975,0.248715679392885,-0.00794498530025127,-0.0247199926755577,0.00343841873429568,0.0172429578539384,-0.0311899166844691,0.91272723573514
3.33,1,-0.0282804854477574,0.000152592547379986,0.0172124393444624,0.0236416720074058,0.0372427543972086,-0.0380667541530605,-0.00192266609698782,-0.161025828831853,-0.00847397279783522,0.0781172114220608,0.261197749768568,-0.00784325693533128,-0.00841293577888323,0.0199184138513342,0.0172429578539384,-0.0458998382518998,0.912818791263568
3.36,1,-0.0284941150140894,0.000152592547379986,0.0170293282876064,0.0354116438286487,0.0389823094373404,-0.0553707490259509,-0.0159204891099785,-0.165583259580269,-0.0160832544938505,0.0907111829991556,0.281451867224138,-0.00442518387401959,0.00621560309661143,0.0349233476770328,0.0172429578539384,-0.0571509954120507,0.915056815291808
3.39,1,-0.0285348063600574,0.000152592547379986,0.0172226121809544,0.0469272947375917,0.0369172236294646,-0.06523840042319,0.00243130792158778,-0.162409334594765,-0.00961333048493912,0.103264463230283,0.294106875820185,-0.00635802280749942,0.0203151544745221,0.0490534175644195,0.0172429578539384,-0.0660725730155339,0.917172765282144
3.42,1,-0.0285348063600574,0.000152592547379986,0.0170801924700664,0.0606606240017904,0.0473545538702556,-0.0840784936063723,0.00320444349497971,-0.160456149988301,-0.00924710837122715,0.124942777794733,0.320525732189907,-0.00553402305164749,0.0402132226528723,0.0689616585792616,0.0172429578539384,-0.0856145919166641,0.918993703014211
3.45,1,-0.0285348063600574,0.000152592547379986,0.0171412294890184,0.0744651631214332,0.0427767774488561,-0.0951465397096673,0.00572730694499547,-0.165094963428653,-0.0163680939156265,0.118859421572517,0.355327005829035,-0.00683614612262337,0.0567237362793868,0.0854619993692841,0.0172429578539384,-0.0956043173518072,0.916704814803512
3.48,1,-0.0285348063600574,0.000152592547379986,0.0172327850174464,0.0881171096936959,0.0449741101311279,-0.107771029796238,0.00890123193049918,-0.165257728812525,-0.0170191554511144,0.0935697500534074,0.409110792362234,-0.00467950478631957,0.0770185450809249,0.105756808170822,0.0172429578539384,-0.108259325947854,0.91135390280872
3.51,1,-0.0285348063600574,0.000152592547379986,0.0171107109795424,0.10355947548855,0.0501419110690634,-0.123447370830409,0.00845362712485122,-0.169652394177068,-0.0155542669962666,0.135848058514155,0.467818231757561,0.0086469110181992,0.101240068768375,0.129978331858272,0.0172429578539384,-0.126010925626392,0.901445560065513
3.54,1,-0.0281584114098534,0.000366222113711966,0.0170191554511144,0.116865545620085,0.0415967284157842,-0.130792158777632,-5.08641824599953e-05,-0.184219896033611,-0.0183212785220903,0.174860886460972,0.577430544958851,0.0281075472273934,0.131819615263324,0.160222174748985,0.0172429578539384,-0.132389294106876,0.884222947884559
3.57,1,-0.0231330301828059,0.0126143172500788,0.0136316008992787,0.125970234280424,0.0204474013489181,-0.127496159754224,-0.0347198909471928,-0.247413556321909,-0.0286975717439294,0.242703533026114,0.814376252530493,0.10996836247851,0.173568936226488,0.196925768812118,0.00916572567929116,-0.128411715038504,0.851720735292622
3.6,2,0.000701925717947935,0.0640481785536261,-0.00445570238349559,0.126428011922564,-0.00718202256335134,-0.10706910407829,0.0387686798710084,-0.230363882361319,-0.0597043773715425,0.263974934130884,0.777438683228045,0.292519913327433,0.22278511917478,0.22222561316772,-0.021332438123722,-0.110253201900286,0.627491073335978
3.63,2,0.0511998860642313,0.145949685150711,-0.0770490635904009,0.112603127129938,-0.0575172175257627,-0.0728375092827133,-0.0705689667449975,-0.184870957569099,-0.0358592486342967,0.274758140812403,0.626850184636982,0.367697175003306,0.267626982431511,0.216488133386232,-0.0755231381166011,-0.0791344950712607,0.292306283761101
3.66,2,0.0951872310556352,0.134881639047416,-0.0239061657561978,0.076143681142613,-0.154637287514878,-0.098208563493759,-0.0364289274778486,-0.198095645008698,0.022207302062034,0.220455539618112,0.424949898780277,0.188706116926583,0.295642974130477,0.20049643442081,0.0223802402823979,-0.129683319600004,0.115695669423505
3.69,2,0.183009328491063,0.288064210943937,0.0518407747632272,-0.0162460198777225,-0.358887498601235,-0.0822982472202724,0.0189926857305623,-0.303974527217424,0.0472731711783197,0.0915962197739596,0.789391766106143,-0.213049714651936,0.330790124210334,0.147852005574714,0.0443433942686239,0.00408948026978362,0.0882697022410759
3.72,2,0.313109734387239,0.437899919634592,-0.00210577715384381,-0.0825830866420484,-0.153233436078982,0.0357982116153447,0.0414950000508642,-0.232276375621815,0.0141911069063387,-0.127648752301604,1.27711823887855,-0.413220618305002,0.393444624164556,0.0803755811232846,-0.00578834396394747,0.106540116580706,0.0951160212001913
3.75,2,0.440534684286019,0.43463443912066,-0.0142521439252907,-0.065513067008474,0.105919573554694,0.0517492192347992,-0.121758679972737,-0.0799279763176366,0.0179347107353944,-0.162877285073397,0.88830225531785,-0.624103518784143,0.462131616158533,0.021739351583402,-0.0160222174748985,0.0511897132277393,0.0308440402437412
3.78,2,0.552374848679057,0.382732627338481,-0.0193690806807662,-0.0145980203660187,0.191351054414502,0.0285856705425174,-0.0531123793247271,-0.158096051922157,-0.00794498530025127,-0.209479049043245,0.557542649616993,-0.570889411094495,0.505020294808802,-0.0471409243039237,-0.02157658619953,0.011108737449263,0.00778221991637928
3.81,2,0.635161392050945,0.286172063356426,-0.0180669576097903,0.0353811253191727,0.157007558417514,-0.00506607257301553,-0.0929492070273954,-0.0754926196071251,-0.00363170262764367,-0.307707958209988,-0.0775170140690329,-0.202714112776065,0.518753624073,-0.116143274229153,-0.0187892290007223,-0.00936918240913114,0.00288908556372773
3.84,2,0.687500635802281,0.185125278481399,-0.043855098117008,0.0558692180140589,0.0483209733369956,-0.00481175166071556,-0.0403352966907763,-0.0745160273038931,-0.0201930804366181,-0.273435672068443,-0.593137404502497,-0.0387279885250404,0.496729433067822,-0.190547400331634,-0.0669881282998138,-0.0161036001668345,0.00190232042400382
3.87,2,0.671763257749158,-0.0483413190099796,-0.0913825902076276,0.0556657612842189,-0.00668355357524339,-0.010905280719423,-0.169733776869004,0.0599688711203345,-0.0189723400575783,-0.231574449903867,-1.41943622140161,0.0990325632496109,0.439171524196092,-0.232347585477259,-0.0947701447594633,-0.0187994018372143,0.00167851802117985
3.9,2,0.594144515315205,-0.257077750989308,-0.0460117394533118,0.0503351949624114,-0.0161646371857865,-0.0137943662831507,-0.0517288735618152,-0.0920133060701315,-0.021413820815658,-0.207597074292225,-2.19422996714174,0.0595823033336385,0.324279508855454,-0.269631031220435,-0.0474054180527156,-0.0134077984964548,0.00167851802117985
3.93,2,0.48119551174454,-0.373902605263426,-0.021312092450738,0.0453708507543158,-0.0167953530482905,-0.0138554033021027,0.0211493270668661,-0.244605853450118,-0.0291858678955453,-0.11220638650675,-2.48479669586271,0.146356598610391,0.181371501815851,-0.299620553198848,-0.0116682434563229,-0.0120344655700349,0.00167851802117985
3.96,2,0.34451328063804,-0.449049348429823,0.0168360443942585,0.0405387534206163,-0.0144962920010987,-0.0116682434563229,0.0825118767866044,-0.32558163192643,-0.0134383170059308,-0.0878424431084119,-2.31873531296731,0.498428296761986,0.0374665568000326,-0.306812748598692,0.0206101667327901,-0.00997955259865108,0.00167851802117985
3.99,2,0.22024191005178,-0.414960173345134,0.032074953459273,0.0374055197810806,-0.00749738049460331,-0.010874762209947,0.116163619902137,-0.32659891557563,0.000640888698995941,-0.285673594368318,-1.98602252265999,0.384278898485265,-0.0935900957263914,-0.313740450249743,0.0353099154637288,-0.010691651153091,0.00167851802117985
4.02,2,0.122541988382621,-0.329691457869198,0.0346588539282408,0.0373953469445886,0.000152592547379986,-0.0117191076387829,0.0902839238664917,-0.283059175389874,-0.000905382447787917,-0.192073325805434,-1.56337168492691,0.421409751681061,-0.199489323608102,-0.321960102135278,0.0367137668996246,-0.0129703665272988,0.00167851802117985
4.05,2,0.0554623045543789,-0.227403586942147,0.0300200404878892,0.0372224087242246,0.000152592547379986,-0.0121056754254789,0.0660318816695659,-0.226172673726615,-0.0115258237454349,-0.208695740633361,-1.06885993021434,0.150659708446506,-0.276070436719871,-0.331461531418806,0.0302641885636972,-0.0129703665272988,0.00167851802117985
4.08,2,0.0177414268420464,-0.129022085228024,0.021790215765862,0.0369986063214006,0.000152592547379986,-0.0129805393637908,0.0599688711203345,-0.186539302753787,-0.0249539679148737,-0.210598061057365,-0.676920885850602,-0.054607786289051,-0.327809483118178,-0.345489872941272,0.0198878953418582,-0.0129703665272988,0.00167851802117985
4.11,2,0.00357066560869167,-0.0496434420809554,0.0125024160486668,0.0367544582455926,0.000152592547379986,-0.0131433047476628,0.0424309010081281,-0.163426618243965,-0.032563249610889,-0.14996795556505,-0.367076631977294,-0.162592445651621,-0.357870214952035,-0.361349325032299,0.0086977752006592,-0.0129703665272988,0.00167851802117985
4.14,2,0.000986765139723909,-0.0086774295276752,0.00349945575324768,0.0358795943072807,-0.00454725791192358,-0.0133671071504868,0.0231432030192979,-0.153660695211646,-0.0305286823124892,-0.122837000640889,-0.163426618243965,-0.159031952879421,-0.356425672170171,-0.357371745963927,0.00164799951170385,-0.0121565396079389,0.00167851802117985
4.17,2,0.000986765139723909,-0.000101728364919991,0.000152592547379986,0.0343943601794488,-0.00298064109215573,-0.0120141198970509,0.0138248847926267,-0.151626127913246,-0.0273140659810175,-0.121453494877977,-0.0792972604551327,-0.0783308409883928,-0.305154576250496,-0.306070131534776,0.000152592547379986,-0.010396638894823,0.00167851802117985
4.2,2,0.000915555284279916,0.000152592547379986,0.000152592547379986,0.0348012736391288,0.000152592547379986,-0.0116885891293069,0.0131738232571388,-0.152846868292286,-0.0265409304076256,-0.138706625568407,0.0102745648569191,0.087486393831192,-0.252235480819117,-0.253120517593921,0.000152592547379986,-0.0120548112430189,0.00167851802117985
4.23,2,0.000915555284279916,0.000152592547379986,0.000152592547379986,0.0350657673879208,0.000152592547379986,-0.0117191076387829,0.0284330779951374,-0.156916002889086,-0.0395214697714164,-0.13144322031312,0.097710094505651,0.260312712993764,-0.197485274819178,-0.198349965920998,0.000152592547379986,-0.0120853297524949,0.00167851802117985
4.26,2,0.000915555284279916,0.000152592547379986,0.000152592547379986,0.0349233476770328,-0.00187180191452783,-0.0115766879278949,0.0548824528743349,-0.176447848953724,-0.0798059022797327,-0.0672627948850978,0.228624327321187,0.462141788995026,-0.146580401013215,-0.147394227932574,0.000152592547379986,-0.0125125888851588,0.00167851802117985
4.29,2,0.000895209611295918,0.000152592547379986,0.000152592547379986,0.0270800907417015,-0.0375682851649525,-0.0065309610278634,-0.0840784936063723,-0.207169815159561,-0.0529496139408551,-0.0908129113640756,0.205938901944029,0.449344360688091,-0.130202134261096,-0.13098544267098,0.000152592547379986,-0.00141402427238787,0.0377513962218085
4.32,2,-0.0011190120141199,-0.00614439324116743,0.000152592547379986,0.00559506007059949,-0.0834376049073763,0.00829086174097924,-0.0878220974354279,-0.141697439497055,-0.0414339630319122,0.00141402427238787,0.186518957080803,-0.0856959746086001,-0.120558285266681,-0.119286680705181,0.00097659230323191,0.0176702169866024,0.133538824630472
4.35,2,-0.00590024516535946,-0.0138147119561347,0.00285856705425174,-0.0244351532537818,-0.103854487746818,0.0308542130802332,-0.0599078341013825,-0.131402528967152,-0.032563249610889,-0.0114851323994669,0.15098523921425,-0.33005767998291,-0.119093396811833,-0.112989694916634,0.00719219539984334,0.0515864538509273,0.19998779259621
4.38,2,-0.0123294778283029,-0.0191656239509262,0.0145776746930347,-0.0455844803206478,-0.053956724753563,0.0532547990356151,-0.0297962380850653,-0.184993031607003,0.0189113030386263,-0.00734478794722332,0.2142399365215,-0.320057781711275,-0.108808659118422,-0.0962248603778191,0.0173243405458744,0.0497960346283354,0.280475274920906
4.41,2,-0.0141707612333547,-0.0043234555090996,0.0147811314228746,-0.0590227973265786,-0.0491653187658315,0.0423902096621601,-0.0631224504328542,-0.164443901893165,0.0117496261482589,-0.0292774234239733,0.269580167037975,-0.021515549180578,-0.0970997243161311,-0.0827255063529364,0.0118411816766869,0.0448113447472559,0.400250251777703
4.44,2,-0.0160527359843745,-0.00464898627684357,0.0101830093284911,-0.0775983967609689,-0.0610166732790104,0.0592567725658946,-0.0454624062827438,-0.163508000935901,-0.00664286222927539,-0.022003845332194,0.251462345245725,-0.0605080314544104,-0.101077303384503,-0.0848007649973042,0.011393576871039,0.0611489201534064,0.510533972187465
4.47,2,-0.0191554511144342,-0.00845362712485122,0.0145471561835587,-0.0931526637572354,-0.0483820103559476,0.0598061057364625,-0.04391613513596,-0.163263852860093,-0.000254320912299977,-0.010945972065391,0.242357656585386,-0.0606911425112664,-0.0880255541652679,-0.0686157821385337,0.0158492792545345,0.0600095624663025,0.60389009267454
4.5,2,-0.0239570299386578,-0.0135095268613748,0.0190130314035463,-0.105451623076062,-0.0365103101697846,0.0585548468479466,-0.0390331736198004,-0.162043112481053,-0.0021668141727958,-0.0129398480178228,0.226335439110487,-0.0443230485956399,-0.0747093111972411,-0.0505284788557594,0.0207017222612181,0.0589515874711346,0.661336100344859
4.53,2,-0.0294605344808293,-0.0161646371857865,0.0248522395499537,-0.113976460056358,-0.0257677948342336,0.0550248725852229,-0.0399283832310963,-0.157811212500381,-0.00428276416313161,-0.032197027497177,0.225226599932859,-0.0447808262377799,-0.0613015127007864,-0.0316171758171331,0.0258186590166936,0.0556657612842189,0.688416191086561
4.56,2,-0.0346385082552568,-0.0157577237261066,0.0280261645354574,-0.118411816766869,-0.010915453555915,0.0508947009694713,-0.0395621611173844,-0.157811212500381,-0.00379446801151565,-0.0446180608539079,0.237057608773054,-0.0384024577572965,-0.0474664550716676,-0.0125837987406028,0.0293384604429253,0.0503351949624114,0.726645710623493
4.59,2,-0.0388195440534684,-0.0122379222998749,0.0303964354380932,-0.121311075167089,-0.00792463962726727,0.0479649240597756,-0.0380972726625365,-0.160252693258461,-0.0022075055187638,-0.0477207759839676,0.252967925046541,-0.0308033488977732,-0.0337839899899289,0.00514745526495153,0.0295927813552253,0.0483616646829636,0.796400850449131
4.62,2,-0.043651641387168,-0.0154220201218706,0.0316680399995931,-0.121575568915881,0.00011190120141199,0.0448622089297159,-0.0314645832697531,-0.162897630746381,0.00141402427238787,-0.0474461093986836,0.23612170781579,-0.0206712037517421,-0.021281573941262,0.0223904131188899,0.0336822616250089,0.0441602832117679,0.867885372478408
4.65,2,-0.0497756889553514,-0.0195420189011302,0.0382295195369325,-0.117791273740857,0.0154627114678386,0.0402132226528723,-0.0281685842463454,-0.161025828831853,0.0021871598457798,-0.0376598406933805,0.224758649454227,-0.0158085879085665,-0.0075584175135553,0.0422783084607481,0.0398876918851283,0.0356049277219967,0.915809605192216
4.68,2,-0.0566525264239428,-0.021505376344086,0.043621122877692,-0.11042614012065,0.0287484359263894,0.0308033488977732,-0.0243435977253538,-0.158543656727805,0.00129195023448388,-0.0224921414838099,0.21190018412834,-0.00453708507543158,0.0053814305042675,0.0622272408215583,0.0445977151809239,0.0262459181493576,0.937772759178442
4.71,2,-0.0623493148594623,-0.0185043895789463,0.0489516891994995,-0.098198390657267,0.0441195918657999,0.021240882595294,-0.0333770765302489,-0.158014669230221,-0.000986765139723909,-0.0233364869126459,0.235643584500666,-0.00932849106316314,0.0182195501571703,0.0807723217464726,0.0491653187658315,0.0129296751813308,0.940549943540757
4.74,2,-0.0626036357717622,-0.00157678965625985,0.0393587043875444,-0.0861842707602161,0.0379243344421725,0.0138554033021027,-0.0240994496495458,-0.15581733654795,-5.08641824599953e-05,-0.0282296212652974,0.236142053488774,-0.0120751569160029,0.0203965371664581,0.0832646666870123,0.0387890255439924,0.010742515335551,0.939878536332286
4.77,2,-0.0634784997100742,-0.00168869085767184,0.0413220618305002,-0.0742210150456252,0.0447808262377799,0.00970488601336711,-0.021251055431786,-0.157770521154413,0.0010478021586759,-0.0315154474522131,0.239753410443434,-0.010945972065391,0.0150049338256986,0.0786767174291208,0.0401216671244443,0.00465915911333557,0.935636463515122
4.8,2,-0.0633259071626942,0.000122074037903989,0.0388093712169764,-0.0612608213548184,0.0398368277026683,-0.000793481246375927,-0.0284941150140894,-0.158502965381837,0.00169886369416384,-0.0336517431155329,0.230933561204871,-0.00748720765811131,0.00671407208471938,0.0702943001597135,0.0386466058331044,-0.000295012258267973,0.935137994527014
4.83,2,-0.0632648701437422,0.000152592547379986,0.0385957416506445,-0.0494908495335754,0.043010752688172,-0.000427259132663961,-0.0153915016123946,-0.158909878841517,0.0010884935046439,-0.0374767296365246,0.228787092705059,-0.00790429395428327,0.00249234494053977,0.0659911903235979,0.0386059144871364,-0.00319427065848771,0.933734143091118
4.86,2,-0.0631733146153142,0.000152592547379986,0.0387686798710084,-0.0350861130609048,0.0480564795882036,-0.00606301054923144,-0.0224311044648579,-0.157729829808445,0.00422172714417961,-0.0244046347443058,0.226020081179235,-0.0100914538000631,0.000661234371979939,0.0640380057171341,0.0386059144871364,-0.0124617247026989,0.934547970010478
4.89,2,-0.0631733146153142,0.000152592547379986,0.0386059144871364,-0.0240485854670858,0.0337839899899289,-0.00942004659159113,-0.0179550564083783,-0.162205877864925,0.00462864060385957,-0.00729392376476333,0.212744529557176,-0.00402844325083163,-0.00276701152582375,0.0605182042909024,0.0386059144871364,-0.00967436750389111,0.931170588295134
4.92,2,-0.0631733146153142,0.000152592547379986,0.0386059144871364,-0.0141707612333547,0.0336212246060569,-0.00955229346598712,-0.010834070863979,-0.159357483647165,0.0054424675232195,-0.00893175043997518,0.203334655802077,-0.0185450809249143,0.000569678843551948,0.0638955860062461,0.0386059144871364,-0.0117597989847509,0.93140456353445
4.95,2,-0.0631733146153142,0.000152592547379986,0.0386974700155644,-0.0032959990234077,0.0370189519943846,-0.0128482924893948,-0.00660217088330739,-0.158869187495549,0.000356049277219967,0.00892157760348318,0.203405865657521,-0.011068046103295,0.00585955381939146,0.0692871893470056,0.0386059144871364,-0.0175583157851904,0.929074983977783
4.98,2,-0.0631733146153142,0.000152592547379986,0.0386669515060884,0.00723288674581133,0.0342010762861008,-0.0173446862188584,-0.0151066621906186,-0.158014669230221,0.00320444349497971,0.0117801446577349,0.209275592313405,-0.0231533758557899,0.00774152857041129,0.0711691640980255,0.0386059144871364,-0.02122053692231,0.930753501998962
5.01,2,-0.0633157343262022,0.000152592547379986,0.0385855688141524,0.0166427605009105,0.0307524847153132,-0.0202846359650461,-0.00473036896877956,-0.159845779798781,0.00499486271757154,0.0297453739026053,0.221961119418928,-0.00658182521032339,0.011291848506119,0.0748415580716371,0.0386059144871364,-0.022166610716066,0.934395377463098
5.04,2,-0.0633259071626942,0.000152592547379986,0.0387178156885484,0.0285348063600574,0.0421969257688121,-0.0268359426658935,-0.00424207281716361,-0.160293384604429,0.00462864060385957,0.0428479873043001,0.248095136366873,-0.00262459181493576,0.0192673523158462,0.0827763705353964,0.0386059144871364,-0.0344757428713848,0.931872514013082
5.07,2,-0.0632140059612822,0.000152592547379986,0.0386466058331044,0.0425631478825241,0.0455743074841558,-0.0394909512619404,-0.00778221991637928,-0.162124495172989,0.00409965310627562,0.0591652170374666,0.271258685059155,0.00771101006093529,0.0273547573269855,0.0908332570370596,0.0386059144871364,-0.0464389985859757,0.929319132053591
5.1,2,-0.0633259071626942,0.000152592547379986,0.0386466058331044,0.0533361817275511,0.0349945575324768,-0.0459507024343598,0.0010478021586759,-0.160171310566525,0.00161748100222785,0.0678223008921578,0.288654235460473,0.00522883795688752,0.0347707551296528,0.098249254839727,0.0386059144871364,-0.0467848750267037,0.93455814284697
5.13,2,-0.0632241787977742,0.000152592547379986,0.0386059144871364,0.0666829432050539,0.0450351471500799,-0.0622068951485743,0.0043844925280516,-0.157851903846349,0.00479140598773156,0.0797245195877967,0.317748547827591,0.00352997426272368,0.0499994913581754,0.11342712688579,0.0386059144871364,-0.0637124749493901,0.934415723136082
5.16,2,-0.0630512405774102,0.000152592547379986,0.0386669515060884,0.0802331614123966,0.0449944558041119,-0.0736309905290892,0.00352997426272368,-0.162246569210893,0.000640888698995941,0.0899482202622557,0.344625181839452,-0.00155644398327586,0.0642312896104821,0.127557196773176,0.0386059144871364,-0.0748415580716371,0.930000712098554
5.19,2,-0.0626544999542222,0.000925728120771915,0.0386466058331044,0.0942309844253873,0.0480259610787276,-0.086947233497116,0.0123599963377789,-0.159479557685069,-0.00224819686473179,0.103681549526454,0.378002258369701,0.0151066621906186,0.0812300993886125,0.144128747418643,0.0386059144871364,-0.0886867885372478,0.925768812117883
5.22,2,-0.0600705994852545,0.00835189875993123,0.0331736198004089,0.109469893490402,0.0472426526688437,-0.10427157404299,0.00466933194982757,-0.171971800897244,0.000315357931251971,0.115583768222093,0.397747734000671,0.0153202917569506,0.104688660339162,0.164983062227241,0.032837916196173,-0.105726289661346,0.918596962391023
5.25,2,-0.054526403597115,0.0191147597684662,0.0289722383292133,0.120202235989461,0.0293181147699413,-0.110354930265206,0.00694804732403536,-0.178278959522284,0.0065004425183874,0.170506912442396,0.396893215735344,0.0121260210984629,0.12864569027782,0.183406069114251,0.0251675974812057,-0.113101596118046,0.895057018748538
5.28,2,-0.0449334187851599,0.0312000895209611,0.0180466119368063,0.122480951363669,-0.00207525864436781,-0.104108808659118,-0.00228888821069979,-0.20049643442081,-0.0126244900865708,0.208614357941425,0.408846298613442,0.0377615690583005,0.152287362285226,0.19744458347321,0.0132348602760908,-0.104647968993194,0.757550787886186
5.31,2,-0.032756533504237,0.0360627053641367,0.00877915789259519,0.116916409802545,-0.0268766340118615,-0.0903449608854437,-0.0314645832697531,-0.233090202541175,-0.0253608813745537,0.140842921231727,0.558620970285145,0.076459039073865,0.181432538834803,0.21444339325134,0.00945056510106713,-0.0944446139917193,0.483341980244352
5.34,2,-0.00486261584317555,0.075553656626077,0.0461541591641998,0.0921150344350515,-0.110080263679922,-0.0963672800887071,-0.0275989054027935,-0.227718944873399,-0.0130314035462508,0.119449446089053,0.343373922950936,0.0946989349040193,0.210079246396273,0.215124973296304,0.0731223487044893,-0.118411816766869,0.204718161564989
5.37,3,0.0946073793755913,0.326629434085106,0.0685038809371217,0.0150557980081586,-0.312326425977355,-0.11037527593819,-0.0442823572496719,-0.387432477797784,-0.0486363312682475,0.075869014557329,0.684896389660329,0.239549953713594,0.236162399161758,0.141646575314595,0.0628579566840622,-0.124189987894325,0.0572527237769707
5.4,3,0.210079246396273,0.397473067415387,0.0267342143009735,-0.0986765139723909,-0.396710104678487,-0.0599790439568265,-0.097872859889523,-0.292255419578641,0.00930814539017914,-0.201167841629282,0.654845830662964,0.0755638294625691,0.280983916745506,0.0709758802046775,0.0139164403210547,0.0485549485763115,0.0558488723410749
5.43,3,0.313964252652567,0.364706361074658,0.00554419588813949,-0.172551652577288,-0.179713329467655,0.0994394767092908,0.0528478855759351,-0.163589383627837,0.0118310088401949,0.0486465041047395,0.608457696259448,-0.620054729860327,0.318684448784855,0.00487278867966755,9.15555284279916e-05,0.152439954832606,0.0383617664113285
5.46,3,0.398958301543219,0.298969491663361,0.000132246874395988,-0.144840845973083,0.161361532436089,0.0724611143325093,0.0139062674845627,-0.148126672159998,-0.0164901679535305,-0.0495213680430514,0.250221259193701,-1.00832138025046,0.345215206355988,-0.0534989471114231,-0.000518814661091952,0.0801110873744926,0.00954212062949512
5.49,3,0.456404309213538,0.206528926460565,0.0032349620044557,-0.0673848689230018,0.287474186427402,0.0487990966521195,0.053865169225135,-0.129042430901008,-0.0293486332794173,-0.0926643676056195,0.0211493270668661,-0.753135776848659,0.352132735170548,-0.104037598803674,0.0165817234819585,0.0592059083834345,0.0032451348409477
5.52,3,0.493392742698447,0.138777835423851,0.0449334187851599,0.0373241370891446,0.386150700399792,0.0280159916989654,0.0833663950519323,-0.152033041372926,-0.0496943062634154,-0.0245775729646697,-0.075970742922249,-0.299183121229692,0.347748242642496,-0.145390179143651,0.0517899105807672,0.0178940193894264,0.00196335744295582
5.55,3,0.538936531673126,0.161127557196773,0.0507827997680593,0.141209143345439,0.334208197271645,-0.0195318460646382,0.076245409507533,-0.160374767296365,-0.0478631956948556,0.00738547929319132,0.106275622831914,-0.209865616829941,0.349925229651784,-0.188777326782027,0.0516983550523392,-0.0312509537034211,0.00168869085767184
5.58,3,0.595009206417025,0.198349965920998,0.0425631478825241,0.203568631041393,0.178278959522284,-0.0183416241950743,0.0779137546922208,-0.186457920061851,-0.0428988514867601,0.118788211717073,0.296487319559313,-0.0100609352905871,0.362214016134119,-0.232551042207099,0.0412305063020722,-0.0138655761385947,0.00167851802117985
5.61,3,0.659260841700491,0.224097415082247,0.0337941628264209,0.228726055686107,0.0710369172236295,0.00506607257301553,0.0413322346669922,-0.167658518224637,-0.0236925361898658,0.13556321909238,0.318989633879615,-0.000386567786695964,0.380972726625365,-0.278043966999318,0.0317392498550371,0.0144962920010987,0.00167851802117985
5.64,3,0.729921363973917,0.245867285175125,0.0243537705618458,0.241289508753726,0.0381176183355205,0.0127669097974588,0.0266833501185135,-0.141168451999471,-0.00928779971719515,0.166976938179673,0.294493443606881,-0.00118004903307189,0.399914548173467,-0.329772840561134,0.0194809818821782,0.0201829076001261,0.00167851802117985
5.67,3,0.798862676880195,0.23917355876339,0.0167953530482905,0.249376913764865,0.0283618681396934,0.0185654265978983,0.0207017222612181,-0.120497248247729,-0.00574765261797947,0.17739392274748,0.236457411420026,-0.076601458784753,0.416241950743126,-0.382346059551785,0.0139673045035147,0.0207017222612181,0.00167851802117985
5.7,3,0.864497817926572,0.225399538153223,0.0132653787855668,0.258196763003428,0.0334381135492009,0.0184128340505183,-0.00639871415346741,-0.0886766157007558,-0.00346893724377168,0.142195908485163,0.011118910285755,-0.0580767235328227,0.423535874507889,-0.440707622506383,0.0101728364919991,0.0143742179631947,0.00167851802117985
5.73,3,0.922279529201127,0.199051891638946,0.00961333048493912,0.268044068727683,0.032939644561093,0.0130924405652028,0.0369782606484166,-0.110690633869442,-0.00224819686473179,0.132887763094984,-0.148930326242866,-0.00311288796655171,0.418642740155238,-0.50338246813359,0.00823999755851924,0.00808740501113926,0.00167851802117985
5.76,3,0.962502924690491,0.140293588061159,0.0140995513779107,0.274056215094455,0.0171819208349864,0.011271502833135,0.0230211289813939,-0.0717897071240374,-0.00534073915829951,0.145786919766839,-0.375052135787022,0.0485447757398195,0.403017263303527,-0.559251686147649,0.0184128340505183,0.010427157404299,0.00167851802117985
5.79,3,0.990162867112237,0.0958586382641072,0.0241706595049898,0.275297301146479,0.00163782667521185,0.0121056754254789,0.0749432864365571,-0.102999969481491,-0.00269580167037975,0.119235816522721,-0.500869777520066,0.0518204290902432,0.375347148045289,-0.614571570991139,0.0262052268033896,0.0149642424797306,0.00167851802117985
5.82,3,1.00871812087364,0.0659911903235979,0.0302743614001892,0.276568905707979,0.00735496078371532,0.0142012797428307,0.103834142073834,-0.113254188665426,-0.00444552954700359,0.086784468113244,-0.501327555162206,0.0780765200760928,0.344940539770704,-0.663563951536607,0.0310169784641051,0.0133264158045188,0.00167851802117985
5.85,3,1.02201401816869,0.0473240353607796,0.0334788048951689,0.277565843684194,0.000783308409883928,0.0126448357595548,0.115349792982777,-0.117648854029969,-0.00684631895911537,0.0568356374807988,-0.425153355510117,0.109388510798466,0.317097486292103,-0.704692729473759,0.0334584592221849,0.0143538722902107,0.00167851802117985
5.88,3,1.02913500371309,0.0268257698294015,0.02167831456445,0.277586189357178,0.000152592547379986,0.00689718314157537,0.0924812565487635,-0.0987680695008189,-0.00912503433332316,0.0337432986439609,-0.397686696981719,0.105329549038158,0.292591123182877,-0.7362997324544,-0.000162765383871985,-0.0291451765495773,0.00167851802117985
5.91,3,1.01613411867631,-0.043600777204708,-0.02208522802413,0.271421450443027,-0.0349538661865088,-0.0357066560869167,0.00788394828129927,-0.0448927274391919,-0.0121361939349549,0.0194504633727022,-0.51936399426252,0.10376293221839,0.266406242052471,-0.749504074221015,-0.0193182164983062,-0.0559607735424869,0.00167851802117985
5.94,3,0.986877040925321,-0.102237006744591,-0.0098269600512711,0.243252866196682,-0.110995818964202,-0.0295826085187333,-0.00237027090263578,-0.0608844264046144,-0.0131127862381868,-0.00134281441694388,-0.744722841069775,0.113386435539822,0.227362895596179,-0.75924965158035,-0.00267545599739575,-0.0134484898424228,0.00167851802117985
5.97,3,0.954578285063224,-0.112328460544654,0.00153609831029186,0.21362956633198,-0.0887376527197078,0.00188197475101983,0.0661132643615019,-0.12533951841792,-0.0168970814132104,-0.0193589078442742,-0.733064770449945,0.146783857743054,0.181737723929563,-0.772596413057853,0.00265511032441176,0.000905382447787917,0.00167851802117985
6,3,0.919146295561591,-0.121178828292693,0.00603249203975545,0.204524877671641,-0.0178736737164424,-0.00479140598773156,0.0565914894049908,-0.128554134749392,-0.0064800968454034,-0.0343231503240048,-0.681183304340749,0.140883612577695,0.139764600563575,-0.779086682739748,0.00788394828129927,-0.0188706116926583,0.00167851802117985
6.03,3,0.886003194270659,-0.113030386262602,0.00925728120771915,0.204372285124261,9.15555284279916e-05,-0.0163579210791345,0.0766930143131809,-0.169774468214972,-0.00420138147119561,-0.0516780093793552,-0.544918159530422,0.107282733644622,0.102816858424635,-0.782942187770216,0.0102643920204271,-0.0275582140568255,0.00167851802117985
6.06,3,0.856095054984181,-0.100314340647603,0.010559404278695,0.200933866389966,-0.0151880448825546,-0.0228888821069979,0.0635090182195502,-0.183161921038443,-0.00306202378409172,-0.0918607135227515,-0.427757601652069,0.105685598315378,0.0736818547115492,-0.7821995707063,0.010956144901883,-0.021301919614246,0.00167851802117985
6.09,3,0.831985432498143,-0.0813826919359925,0.00993886125268309,0.194657226274402,-0.0234280424410738,-0.0186061179438663,0.0456862086855678,-0.184097821995707,-0.00521866512039552,-0.126682332834864,-0.302560502945036,0.123599963377789,0.0523697622608112,-0.779422386343984,0.00993886125268309,-0.0143843907996867,0.00167851802117985
6.12,3,0.819391460921049,-0.043590604368216,0.00711081270790735,0.189865820286671,-0.0150964893541266,-0.0157373780531226,0.0510167750073753,-0.194555497909482,-0.00920641702525915,-0.155481632943714,-0.170740887681712,0.113060904772078,0.0383007293923765,-0.780846583452864,0.00391654204941964,-0.0141402427238787,0.00167851802117985
6.15,3,0.813735363831497,-0.0199896237067782,0.000203456729839981,0.185186315500351,-0.0162765383871985,-0.0146387117119867,0.0392162846766564,-0.181127353740043,-0.0234483881140578,-0.166549679047009,-0.0658589434492019,0.0993784396903389,0.0315357931251971,-0.78199611397646,-0.000528987497583951,-0.0119225643686229,0.00167851802117985
6.18,3,0.812453586433505,-0.00566626992604348,-0.00142419710887987,0.180496637877539,-0.0160018718019145,-0.011373231198055,0.0691244239631336,-0.170751060518204,-0.0633259071626942,-0.107964313689586,0.0573239336324147,0.130334381135492,0.0372427543972086,-0.774966683960489,-0.00289925840021973,-0.00890123193049918,0.00167851802117985
6.21,3,0.813735363831497,-0.000101728364919991,-0.00403861608732363,0.177373577074496,-0.00772118289742729,-0.00950142928352713,0.0957772555721712,-0.168024740338349,-0.0951872310556352,0.0086469110181992,0.290739666941333,0.274575029755547,0.0569984028646708,-0.756513158564002,-0.00460829493087558,-0.00967436750389111,0.00167851802117985
6.24,3,0.819788201544237,0.00803654082867926,-0.00492365286212755,0.177180293181148,-0.000478123315123956,-0.011159601631723,-0.00550350454217149,-0.100273649301635,-0.0666625975320699,0.0800297046825566,0.225918352814315,0.248532568336029,0.0822982472202724,-0.737276324757632,-0.0065004425183874,-0.0129703665272988,0.00167851802117985
6.27,3,0.827478865932188,0.0124108605202389,-0.00716167689036734,0.175135553046256,-0.00704977568895535,-0.0117089348022909,0.0246894741660817,-0.170262764366588,-0.0992563656524349,0.161870174260689,0.218146305734428,0.316914375235247,0.0948922187973673,-0.732332326222521,-0.00840276294239123,-0.00897244178594317,0.00167851802117985
6.3,3,0.835383159886471,0.0153202917569506,-0.00901313313191117,0.17541021963154,0.000152592547379986,-0.011190120141199,0.0175277972757144,-0.168879258603676,-0.0140079958494827,0.0820032349620044,0.19541001617481,0.217678355255796,0.107079276914782,-0.728039389222897,-0.0097455773593351,-0.0120141198970509,0.00167851802117985
6.33,3,0.845393230994598,0.0237230546993418,-0.011017181920835,0.175674713380332,0.000152592547379986,-0.0115461694184189,0.0233466597491379,-0.167821283608509,-0.00237027090263578,-0.0144759463281147,0.201310261340169,-0.0261034984384696,0.119073051138849,-0.726096377452925,-0.0123498235012869,-0.0120548112430189,0.00167851802117985
6.36,3,0.856501968443861,0.0290332753481653,-0.0137943662831507,0.17586799727368,0.000152592547379986,-0.0117089348022909,0.0193182164983062,-0.164362519201229,-0.021698660237434,-0.076235236671041,0.185094759971923,-0.156743064668722,0.130700603249204,-0.725567389955341,-0.0149744153162226,-0.0120548112430189,0.00167851802117985
6.39,3,0.863663645334228,0.0174565874202704,-0.0143538722902107,0.176061281167028,0.000152592547379986,-0.0118818730226549,0.0171208838160344,-0.144220302947071,-0.0284941150140894,-0.0937630339467554,0.133243812372204,-0.188187302265491,0.140273242388175,-0.723136082033754,-0.0138554033021027,-0.0123905148472549,0.00167851802117985
6.42,3,0.866145817438276,0.00388602353994364,-0.0116987619657989,0.176091799676504,0.000152592547379986,-0.0122074037903989,0.0309966327911211,-0.158909878841517,-0.0314645832697531,-0.0801619515569526,0.098015279600411,-0.156305632699566,0.148452202927742,-0.717449466434726,-0.010539058605711,-0.0125125888851588,0.00167851802117985
6.45,3,0.86906542151148,0.00552385021515549,-0.0114139225440229,0.176061281167028,0.000152592547379986,-0.0120955025889869,0.0200506607257302,-0.167739900916573,-0.0171819208349864,-0.0535498112938831,0.0625629444257942,-0.117089348022909,0.154474522131006,-0.714377269814142,-0.0119225643686229,-0.0125125888851588,0.00167851802117985
6.48,3,0.867580187383648,-0.00685649179560737,-0.0097455773593351,0.175939207129124,0.000152592547379986,-0.0123294778283029,-0.00338755455183569,-0.167292296110925,-0.0227566352326019,-0.0168462172307505,-0.0204982655313781,-0.0712607196264534,0.151158177434614,-0.71614734336375,-0.0086672566911832,-0.0122074037903989,0.00167851802117985
6.51,3,0.864619891964477,-0.010996836247851,-0.0087181208736432,0.17576626890876,0.000152592547379986,-0.0122074037903989,-0.0181585131382183,-0.157160150964894,-0.0387076428520564,0.0493484298226875,-0.121382285022533,0.0222886847539699,0.129428998687704,-0.734987436546932,-0.00810775068412325,-0.0120548112430189,0.00167851802117985
6.54,3,0.860387991983805,-0.0124515518662069,-0.00732444227423933,0.174942269152908,-0.00454725791192358,-0.0122582679728589,0.0362051250750247,-0.169774468214972,-0.0366730755536566,0.123152358572141,-0.109988708151494,0.117954039124729,0.121097445600757,-0.73904639830724,-0.00673441775770338,-0.011139255958739,0.00167851802117985
6.57,3,0.858058412427137,-0.00304167811110772,-0.00721254107282734,0.173253578295236,-0.00298064109215573,-0.010783206681519,-0.00460829493087558,-0.147190771202734,-0.0251574246447137,0.176112145349488,-0.10884935046439,0.118045594653157,0.105268512019206,-0.752555925168615,-0.00830103457747124,-0.00857570116275521,0.00167851802117985
6.6,3,0.855871252581357,7.12098554439934e-05,-0.00839259010589923,0.173457035025076,0.000152592547379986,-0.010366120385347,0.0165105136265145,-0.152480646178574,-0.0127058727785068,0.171330912198248,-0.109429202144434,0.115695669423505,0.086489455854976,-0.769147821487065,-0.00900296029541917,-0.010956144901883,0.00167851802117985
6.63,3,0.850103254290394,-0.00960315764844712,-0.00844345428835922,0.173558763389996,0.000152592547379986,-0.010691651153091,0.0307931760612812,-0.149835708690654,-0.00473036896877956,0.160415458642333,-0.0527461572110152,0.118360952584409,0.0855026907152521,-0.76438693400881,-0.00703960285246335,-0.010986663411359,0.00167851802117985
6.66,3,0.845576342051454,-0.00727357809177933,-0.00659199804681539,0.173650318918424,0.000152592547379986,-0.010671305480107,0.0943937498092593,-0.137140008748639,0.00475071464176356,0.120456556901761,0.0966622923469751,0.149032054607786,0.0892564673807998,-0.756075726594846,-0.00605283771273944,-0.010986663411359,0.00167851802117985
6.69,3,0.84382661417483,-0.00102745648569191,-0.00711081270790735,0.173650318918424,0.000152592547379986,-0.010803552354503,0.0160222174748985,-0.119439273252561,-0.0305693736584572,0.116590879034801,0.140090131331319,0.125420901109856,0.113976460056358,-0.729616178879157,-0.0076296273689993,-0.010986663411359,0.00167851802117985
6.72,3,0.842036194952238,-0.00494399853511155,-0.00667338073875139,0.173650318918424,0.000152592547379986,-0.010803552354503,0.0142724895982747,-0.189347005625579,-0.0605182042909024,0.118513545131789,0.168156987212745,0.201991841385133,0.118910285754977,-0.722881761121453,-0.00609352905870744,-0.010986663411359,0.00347911008026368
6.75,3,0.845108391572822,0.00558488723410749,-0.00786360260831528,0.173650318918424,0.000152592547379986,-0.010966317738375,0.0227362895596179,-0.176040935494044,0.00239061657561978,0.0799991861730806,0.206457716605121,0.0594805749687185,0.132175664540544,-0.712698751792962,-0.00922676269824315,-0.010986663411359,0.0198166854864142
6.78,3,0.850479649240598,0.010762861008535,-0.00883002207505519,0.173589281899472,0.000152592547379986,-0.010864589373455,0.0333160395112969,-0.169733776869004,-0.0401318399609363,0.0314442375967691,0.175725577562792,0.0237434003723258,0.148319956053346,-0.701935890784427,-0.00999989827163508,-0.010986663411359,0.0286975717439294
6.81,3,0.856430758588417,0.0135400453708508,-0.011200292977691,0.173558763389996,0.000152592547379986,-0.011017181920835,0.0310780154830571,-0.145522426018047,-0.0354523351746167,0.0119429100416069,0.151605782240262,0.0231940672017579,0.158279162979013,-0.697907447533596,-0.0119734285510829,-0.010986663411359,0.032685323648793
6.84,3,0.859899695832189,0.00608335622221544,-0.011291848506119,0.173650318918424,0.000152592547379986,-0.010956144901883,0.0367748039185766,-0.157729829808445,-0.0315866573076571,0.00702943001597135,0.109775078585162,0.075797804701885,0.168980986968596,-0.690674560787784,-0.010508540096235,-0.010986663411359,0.0440280363373719
6.87,3,0.863104139327169,0.00561540574358348,-0.010762861008535,0.173752047283344,0.000152592547379986,-0.011230811487167,0.0344960885443688,-0.155329040396334,-0.0343943601794488,-0.0253201900285857,0.0815352844833725,0.0559607735424869,0.176803898230944,-0.686035747347433,-0.011149428795231,-0.010986663411359,0.06513667205827
6.9,3,0.864304534033224,0.000406913459679963,-0.0102949105299031,0.175196590065208,0.00735496078371532,-0.011322367015595,0.0320546077862891,-0.158665730765709,-0.0282092755923134,-0.0879848628192999,0.0713929665008494,-0.00799584948271126,0.182490513829971,-0.681590217800429,-0.0100711081270791,-0.0138655761385947,0.0840988392793563
6.93,3,0.863917966246529,-0.00317392498550371,-0.0425936663920001,0.176132491022472,0.000783308409883928,-0.0133365886410108,0.0296538183741773,-0.15317239906003,-0.0302438428907132,-0.10483108005005,0.0671508936836858,-0.0378327789137445,0.184280933052563,-0.679382712281665,-0.0634378083641062,-0.0158797977640105,0.0997751803135268
6.96,3,0.836044394258451,-0.0996124149296548,-0.0929288613544114,0.175959552802108,0.000152592547379986,-0.0165105136265145,0.0640786970631021,-0.116875718456577,-0.0337839899899289,-0.11225725068921,-0.0801721243934446,-0.00776187424339529,0.183558661661631,-0.652211066011536,-0.086896369314656,-0.0203660186569821,0.136977243364767
6.99,3,0.817448449151077,-0.0700908434298736,-0.0610370189519944,0.177912737408572,0.00794498530025127,-0.0201523890906501,0.00853500981678721,-0.172622862432732,-0.0251574246447137,-0.0626443271177302,-0.0343943601794488,0.00445570238349559,0.17897071240374,-0.638233588671529,-0.0596840316985585,-0.0278735719880774,0.190720338551998
7.02,3,0.811700796533097,-0.0279854731894894,-0.0711691640980255,0.178228095339824,0.000193283893347982,-0.0275073498743655,0.0316476943266091,-0.158706422111677,-0.0177515996785384,-0.0826339508245084,0.00153609831029186,-0.0618915372173223,0.178736737164424,-0.632730084129358,-0.075980915758741,-0.0345876440727968,0.203487248349457
7.05,3,0.793013295897295,-0.0691549424726096,-0.0899685659352397,0.178116194138412,0.000152592547379986,-0.0371105075228126,0.043326110619424,-0.153742077903582,-0.021535894853562,-0.0421053702403841,-0.0519730216376232,-0.021291746777754,0.177007354960784,-0.615751620024211,-0.0889512822860398,-0.04294971566922,0.21663055309712
7.08,3,0.773054190699993,-0.0725831883704133,-0.0830713827936644,0.175990071311584,-0.00767031871496729,-0.0424003824986521,0.021759697256386,-0.165908790348013,-0.0207627592801701,-0.00127160456149988,-0.0159306619464705,0.0183009328491063,0.174515010020244,-0.598305205440433,-0.0818201239051485,-0.043529567349264,0.222113711966308
7.11,3,0.764407279681794,-0.0368867051199886,-0.0881781467126479,0.17658009582812,0.000142419710887987,-0.0449029002756839,0.021922462640258,-0.160863063447981,-0.0209255246640421,-0.00282804854477574,0.0533972187465031,-0.0202948088015381,0.175888342946664,-0.588254442986338,-0.0882188380586159,-0.0463474430575477,0.239794101789402
7.14,3,0.755882442701498,-0.032990508743553,-0.0965198726360871,0.177119256162196,0.000152592547379986,-0.0480361339152196,0.0280668558814254,-0.154515213476974,-0.0237332275358338,0.0240180669576098,0.0918607135227515,0.00530004781233151,0.180781477299315,-0.574887335835851,-0.0988697978657389,-0.0492670471307515,0.265409304076256
7.17,3,0.741579434593748,-0.043753369752088,-0.111891028575498,0.179265724662007,0.00790429395428327,-0.053875342061627,0.0225735241757459,-0.167658518224637,-0.0230414746543779,0.0166732790103865,0.115451521347697,-0.0118310088401949,0.187566759239479,-0.553809218624429,-0.114383373516037,-0.0558692180140589,0.32197027497177
7.2,3,0.727205216630553,-0.0533463545640431,-0.158564002400789,0.179459008555355,1.01728364919991e-05,-0.0633564256721702,0.0422681356242561,-0.144260994293039,-0.0250353506068097,0.0100812809635711,0.0926440219326355,-0.0225735241757459,0.194331695506658,-0.532659891557563,-0.166366567990153,-0.0641397340820541,0.365347249773654
7.23,3,0.696462904751732,-0.109134189886166,-0.194524979400006,0.180303353984191,0.00032553076774397,-0.0723695588040813,0.054272082684815,-0.154718670206814,-0.0306507563503932,-0.00191249326049582,-0.0270800907417015,0.00416069012522762,0.195939003672394,-0.500289925840022,-0.194321522670166,-0.0735801263466292,0.449527471744947
7.26,3,0.661854915005951,-0.124535864335053,-0.220811588895332,0.180415255185603,-0.00187180191452783,-0.0819218522700685,0.043163345235552,-0.134942676066368,-0.0288196457818333,-0.0204677470219021,-0.118411816766869,-0.0181381674652343,0.19205298013245,-0.469557786797693,-0.24242886644083,-0.0882493565680919,0.511764885402997
7.29,3,0.586036764631082,-0.267810093488367,-0.238074892422254,0.175166071555732,-0.0254524369029817,-0.0951160212001913,0.0917081209753716,-0.160700298064109,-0.0254015727205217,-0.0914436272265796,-0.492945137892799,0.114729249956765,0.17403688670512,-0.411745557013662,-0.267769402142399,-0.0968962675862911,0.528173670664591
7.32,3,0.494796594134342,-0.324696595151626,-0.239600817896054,0.160639261045157,-0.065299437442142,-0.0855230363882361,0.0232245857112339,-0.149957782728558,-0.0243029063793858,-0.0550655639311909,-0.752108320362967,-0.279356262906786,0.135319071016572,-0.359263893551439,-0.224107587918739,-0.0914843185725476,0.551703441470585
7.35,3,0.419761752169357,-0.262916959135716,-0.165115309101637,0.129144159265928,-0.116590879034801,-0.0672119307026378,-0.0267850784834335,-0.184138513341675,-0.00924710837122715,-0.0641804254280221,-0.690989918719036,-0.156153040152186,0.0892666402172918,-0.330250963876258,-0.162775556708477,-0.065686005228838,0.565406252225308
7.38,3,0.354838709677419,-0.232032227546007,-0.124332407605213,0.0909756767479476,-0.133793145542772,-0.0466526281523077,0.0359609769992167,-0.134454379914752,-0.0102643920204271,0.00154627114678386,-0.682231106499425,-0.204372285124261,0.0505488245287433,-0.304045737072868,-0.120354828536841,-0.0373851741080966,0.566301461836604
7.41,3,0.274402091535183,-0.273954486729535,-0.0442620115766879,0.0552995391705069,-0.117353841771701,-0.0302438428907132,0.00121056754254789,-0.159520249031037,-0.0150252794986826,0.153060497858618,-0.671966714478998,-0.0398470005391603,0.00859604683573921,-0.265602587969604,-0.0255948566138696,-0.0101219723095391,0.557573168126469
7.44,3,0.215552232428968,-0.199184138513342,0.0254320912299977,0.0335805332600889,-0.0523290709148432,0.0032247891679637,-0.0147404400769066,-0.166315703807693,-0.0234890794600258,0.0959501937925352,-0.382061220130009,0.0314951017792291,-0.0234382152775658,-0.238909065014598,0.0392061118401644,0.00425224565365561,0.541784925890886
7.47,1,0.201788384655293,-0.0374360382905566,0.0350759402244128,0.0331939654733929,0.00691752881455936,0.00118004903307189,-0.0706503494369335,-0.164932198044781,-0.0180771304462823,0.0965300454725791,-0.0181890316476943,-0.0303659169286172,-0.0353607796461888,-0.237057608773054,0.0262560909858496,-3.05185094759972e-05,0.526505325479904
7.5,1,0.193863745028026,-0.00835189875993123,0.0136112552262947,0.0333262123477889,0.000233975239315978,-0.00167851802117985,-0.00997955259865108,-0.145725882747887,-0.0375682851649525,0.0481582079531236,0.195898312326426,-0.0295113986632893,-0.0263679921872616,-0.220109663177384,0.0146590573849707,-0.0123803420107629,0.513707897172969
7.53,1,0.190160832544939,0.00367239397361166,0.0102033550014751,0.033122755617949,0.000152592547379986,-0.0155847855057426,-0.011078218939787,-0.161717581713309,-0.0393180130415764,-0.0043336283455916,0.2198349965921,0.021261228268278,-0.0140588600319427,-0.204128137048453,0.0043336283455916,-0.0267036957914975,0.526139103366192
7.56,1,0.184382661417483,-0.00481175166071556,0.00376394950203965,0.0351369772433648,0.011210465814183,-0.0268359426658935,0.0120344655700349,-0.162246569210893,-0.0296334727011933,-0.065401165807062,0.218024231696524,-0.0170801924700664,0.00149540696432386,-0.182704143396303,0.00495417137160354,-0.0335601875871049,0.56857000437432
7.59,1,0.181229082104963,-0.000122074037903989,-0.00142419710887987,0.0428886786502681,0.0286975717439294,-0.0461745048371838,0.00609352905870744,-0.158706422111677,-0.0256050294503616,-0.0802331614123966,0.188350067649363,-0.000701925717947935,0.02122053692231,-0.159774569943337,-0.00303150527461572,-0.053885514898119,0.63345235552029
7.62,1,0.178624835963012,0.000152592547379986,-0.00570696127201147,0.0507319355855993,0.0259814244005656,-0.0595110934781945,0.00263476465142776,-0.163670766319773,-0.0146590573849707,-0.0537227495142471,0.154505040640482,0.00011190120141199,0.0285449791965494,-0.149856054363638,-0.00906399731437117,-0.0594907478052105,0.695659250668864
7.65,1,0.174260689107944,-0.00694804732403536,-0.00963367615792311,0.0592567725658946,0.0269274981943215,-0.0659403261411379,0.00910468866033916,-0.160985137485885,-0.0203965371664581,-0.0296843368836533,0.102440463474431,0.0162968840601825,0.0370189519943846,-0.137058626056703,-0.010416984567807,-0.0687073376669617,0.718660033977274
7.68,1,0.166264839625233,-0.0197556484674622,-0.0103152562028871,0.0632648701437422,0.00991851557969909,-0.0599993896298105,0.0156153040152186,-0.158747113457645,-0.0232449313842179,-0.0295012258267973,0.0150761436811426,0.0124312061932229,0.0399894202500483,-0.126061789808852,-0.00860621967223121,-0.0606809696747744,0.717052725811538
7.71,1,0.14991709138259,-0.0477309488204596,0.00270597450687175,0.0646178573971781,0.000783308409883928,-0.0561031932533748,0.0135807367168188,-0.155288349050366,-0.0242622150334178,-0.0470086774295277,-0.0705791395814895,0.00784325693533128,0.0379345072786645,-0.111728263191626,0.0065614795373394,-0.0550350454217149,0.715730257067578
7.74,1,0.128309986673584,-0.0666625975320699,0.0164189580980865,0.064699240089114,0.000152592547379986,-0.054241564175339,0.00405896176030763,-0.158218125960061,-0.0223904131188899,-0.0602130191961425,-0.0930204168828394,-0.00700908434298736,0.032766706340729,-0.0953398236030152,0.0227159438866339,-0.054231391338847,0.711579739778843
7.77,1,0.109622486037782,-0.0573442793053987,0.0252896715191097,0.0645161290322581,0.000152592547379986,-0.054445020905179,-0.0124210333567309,-0.164484593239133,-0.0207220679342021,-0.0514135156305633,-0.0312611265399131,-0.00936918240913114,0.0286467075614694,-0.0807418032369966,0.0240384126305938,-0.054475539414655,0.712088381603442
7.8,1,0.097333699555447,-0.0375275938189845,0.0177109083325704,0.0643940549943541,0.000152592547379986,-0.054719687490463,-0.000579851680043947,-0.161473433637501,-0.0185654265978983,-0.0424919380270801,0.022105573697114,-0.0119632557145909,0.0287687815993734,-0.0683309427167577,0.0143030081077507,-0.054719687490463,0.71289203568631
7.83,1,0.087160863063448,-0.0304269539475692,0.0100609352905871,0.0643330179754021,0.000152592547379986,-0.054841761528367,0.00308236945707572,-0.159845779798781,-0.0180364391003143,-0.032278410189113,0.0396740623187963,-0.0132552059490748,0.0309355957721692,-0.0560014648884548,0.00823999755851924,-0.054750205999939,0.715353862117374
7.86,1,0.0743023977375612,-0.0407422101504562,0.00999989827163508,0.0644245735038301,0.000152592547379986,-0.0552893663340149,0.00698873867000336,-0.158177434614093,-0.0183212785220903,-0.0176091799676504,0.0119734285510829,-0.00694804732403536,0.032461521245969,-0.0416272469252602,0.0124617247026989,-0.0551774651326029,0.719168675801874
7.89,1,0.0613828953927224,-0.0418307036551002,0.0143742179631947,0.0645466475417341,0.000152592547379986,-0.0555335144098229,7.12098554439934e-05,-0.160700298064109,-0.0165715506454665,-0.0032756533504237,0.0205999938962981,-0.00716167689036734,0.033143101290933,-0.0279956460259814,0.0146997487309386,-0.0553910946989349,0.726279488509781
7.92,1,0.0504165776543474,-0.0357931251970987,0.0126244900865708,0.065686005228838,0.00700908434298736,-0.0593890194402905,0.00198370311593982,-0.157689138462477,-0.0174667602567624,-4.57777642139958e-05,0.0336110517695649,-0.0101016266365551,0.0350505081331828,-0.0151320942818486,0.010691651153091,-0.0605792413098544,0.731996622618285
7.95,1,0.0361339152195807,-0.0482192449720756,0.0125939715770948,0.0671508936836858,0.00175990071311584,-0.0616779076509903,0.0133365886410108,-0.159601631722973,-0.0198675496688742,0.00894192327646718,0.00335703604235969,0.000417086296171962,0.0360016683451847,4.06913459679963e-05,0.0159815261289305,-0.0599485254473505,0.755363628040406
7.98,1,0.0205796482233141,-0.0520035401470992,0.02213609220659,0.0698670410270496,0.010844243700471,-0.0664693136387219,-0.00468967762281157,-0.163223161514125,-0.0190537227495142,0.0117903174942269,0.0294300159713533,0.00501520839055554,0.0366222113711966,0.0161239458398185,0.0228176722515539,-0.0669169184443698,0.781863867102064
8.01,1,0.010640786970631,-0.0337229529709769,0.0167444888658305,0.0726950895718253,0.010874762209947,-0.0709758802046775,0.000152592547379986,-0.160700298064109,-0.0169784641051464,0.0223293760999379,0.086652221238848,-0.00704977568895535,0.0405489262571083,0.0299488306324452,0.0133162429680268,-0.0723593859675893,0.80891343933429
8.04,1,0.00234992522965178,-0.0280363373719494,0.011190120141199,0.0770897549363689,0.0130008850367748,-0.0770999277728609,0.00914538000630716,-0.159927162490717,-0.0202337717825861,0.0275175227108575,0.0606911425112664,8.13826919359925e-05,0.0453199865718558,0.043132826726076,0.0119429100416069,-0.075777459028901,0.821253089999084
8.07,1,-0.0103050833663951,-0.0425428022095401,0.0195013275551622,0.0809961241492966,0.0123701691742709,-0.0806705933815526,0.0171208838160344,-0.158421582689901,-0.0209662160100101,0.0189113030386263,-0.0315357931251971,0.00420138147119561,0.0462660603656117,0.0567847732983388,0.0251574246447137,-0.0819727164525284,0.826207261370688
8.1,1,-0.0312509537034211,-0.0685750907925657,0.0468560848821477,0.0816166671753085,0.000244148075807978,-0.0720948922187974,0.0148014770958586,-0.161554816329437,-0.0201930804366181,0.0124108605202389,-0.12747581408124,0.0255236467584257,0.0408337656788842,0.0722983489486373,0.0506505528936633,-0.0721559292377494,0.82865891496526
8.13,1,-0.0559404278695029,-0.0820235806349884,0.0708538061667735,0.0815861486658325,0.000152592547379986,-0.0723186946216214,-0.000701925717947935,-0.161188594215725,-0.0101423179825231,0.0440585548468479,-0.111026337473678,0.0200404878892382,0.033021027253029,0.0892056031983398,0.0735902991831212,-0.0720236823633534,0.82575965656504
8.16,1,-0.0635293638925341,-0.0227159438866339,0.0641092155725781,0.0815556301563565,0.000152592547379986,-0.0719422996714174,-0.0377717418947925,-0.177017527797276,-0.00399792474135563,0.0719626453444014,0.101880957467371,-0.00809757784763126,0.0332346568193609,0.0969776502782271,0.0578020569475387,-0.0720236823633534,0.821832941679128
8.19,1,-0.0670186468092898,-0.0135807367168188,0.0398673462121443,0.0815149388103885,0.000152592547379986,-0.0715659047212134,-0.00257372763247576,-0.170262764366588,-0.0277209794406975,0.0990223904131189,0.117404705954161,0.0294910529903053,0.0400199387595243,0.107262387971638,0.0456963815220598,-0.0718405713064974,0.812128055665761
8.22,1,-0.0630308949044262,0.0123498235012869,0.0383719392478205,0.0795007171849727,-0.0075991088595233,-0.0636107465844701,-0.00196335744295582,-0.177261675873084,-0.0133976256599628,0.110548214158554,0.152694275744906,0.0152694275744906,0.0486363312682475,0.111870682902514,0.032135990478225,-0.064760277108066,0.771996215704825
8.25,1,-0.0642312896104821,-0.00134281441694388,0.0420748517309081,0.0723085217851294,-0.032502212591937,-0.0522782067323832,-0.010589922788171,-0.181330810469883,-0.0319528794213691,0.111891028575498,0.149489832249926,0.0505691702017273,0.0568966744997508,0.121372112186041,0.0426852219204281,-0.0462762332021037,0.587440616066978
8.28,1,-0.054455193741671,0.0290129296751813,0.0245470544551937,0.0584734641560106,-0.0466322824793237,-0.0297046825566373,-0.00676493626717938,-0.194962411369162,-0.0254829554124577,0.105665252642394,0.212571591336812,0.111311176895454,0.0685649179560737,0.123254086937061,0.0195928830835902,-0.0185755994343903,0.281248410494298
8.31,3,-0.043977172154912,0.0317189041820531,0.0152897732474746,0.0452386038799198,-0.0442518387401959,-0.0183111056855983,-0.00859604683573921,-0.250913012075157,-0.0252794986826177,0.105370240384126,0.187047944578387,0.249234494053977,0.0806400748720766,0.124861395102797,0.0121667124444309,-0.00940987375509914,0.0697347941526536
8.34,3,-0.032471694082461,0.033061718598997,0.00734478794722332,0.0348114464756208,-0.0261848811304056,-0.00246182643106377,-0.021617277545498,-0.259458194728436,-0.00473036896877956,-0.0286873989074374,0.139876501764987,0.339904985707165,0.0903653065584277,0.123081148716697,0.00354014709921567,-0.00744651631214331,0.0156458225246946
8.37,3,-0.0260221157465336,0.0147913042593666,0.00422172714417961,0.032787052013713,-0.00642923266294341,-0.0126143172500788,-0.0348826563310648,-0.197607348857082,-0.0129500208543148,-0.0356557919044567,0.053875342061627,0.198268583229062,0.0964181442711671,0.122643716747541,0.00694804732403536,-0.0250353506068097,0.00453708507543158
8.4,3,-0.0211798455763421,0.00633767713451542,0.010671305480107,0.0285348063600574,-0.0153202917569506,-0.0170903653065584,-0.0378938159326965,-0.194921720023194,-0.010508540096235,-0.010722169662567,-0.0696025472782576,-0.0885138503168839,0.0954618976409192,0.116865545620085,0.010681478316599,-0.0152897732474746,0.00223802402823979
8.43,3,-0.0156966867071546,0.00628681295205542,0.0416374197617522,0.0209356975005341,-0.0245368816187017,0.0100100711081271,-0.0155542669962666,-0.214819788201544,-0.00806705933815526,-0.0119225643686229,-0.0549841812392549,-0.172724590797652,0.0907315286721397,0.106652017782118,0.0645771660512101,0.065584276863918,0.00173955504013184
8.46,3,0.0478733685313476,0.213924578590248,0.098340810368155,0.0517899105807672,0.16864528336436,0.0929390341909034,0.24263232317067,-0.313130080060223,-0.02137312946969,-0.0848923205257322,0.819126967172257,0.179143650624104,0.105604215623442,0.0578325754570147,0.100517797377443,0.0947091077405113,0.00167851802117985
8.49,3,0.174077578051088,0.425794244209113,0.0333669036937569,0.133030182805872,0.291166926073997,0.011281675669627,0.0120344655700349,-0.293394777265745,-0.00599180069378745,-0.0768659525335449,1.58150985239214,0.215837071850744,0.190333770765303,0.0163375754061505,0.0301421145257932,-0.00559506007059949,0.00167851802117985
8.52,3,0.319620349742119,0.489995015310119,-0.000549333170567949,0.193639942625202,0.17174799849442,-0.00922676269824315,-0.0130314035462508,-0.245704519791253,-0.00912503433332316,-0.0388398897264524,1.43209122999766,-0.0818913337605925,0.280688904487238,-0.0386872971790724,-0.00301115960163172,-0.00678528194016338,0.00167851802117985
8.55,3,0.449415570543535,0.442294584999135,-0.00313323363953571,0.21520635598824,0.0564388968576108,0.00783308409883928,-0.0446892707093519,-0.168757184565772,-0.0146997487309386,-0.212439344462416,1.19913327433088,-0.322183904538102,0.359752189703055,-0.0894192327646718,-0.000956246630247912,0.0263985106967376,0.00167851802117985
8.58,3,0.565904721213416,0.396140425834936,0.00149540696432386,0.224453464359467,0.0319732250943531,0.022258166244494,-0.0574663533433027,-0.124647765536465,-0.0235297708059938,-0.150639362773522,0.844203009125034,-0.32222459588407,0.419975381735689,-0.145705537074903,0.00388602353994364,0.032736187831253,0.00167851802117985
8.61,3,0.671600492365286,0.360082806889045,0.000966419466739911,0.237505213578702,0.0525325276446832,0.0256202887050996,-0.0465610726238797,-0.086845505132196,-0.0343129774875128,-0.137643564154993,0.560548722800378,-0.21741894792525,0.462238430941699,-0.209107740511287,0.00278227078056174,0.0199031545965962,0.00167851802117985
8.64,3,0.767398093610441,0.327992594175034,-0.000289925840021973,0.256233405560472,0.0669220048626158,0.0142928352712587,-0.0342722861415449,-0.0793989888200527,-0.0350861130609048,-0.116173792738629,0.255048270109155,-0.155583361308634,0.485580004272591,-0.281624805444502,-0.000498468988107954,0.00398266548661763,0.00167851802117985
8.67,3,0.846359650461338,0.275510930712811,0.000925728120771915,0.268471327860347,0.0316070029806411,0.00308236945707572,-0.0304472996205532,-0.0642211167739901,-0.0317087313455611,-0.146529536830755,-0.0487889238156275,-0.132114627521592,0.491225928525651,-0.354869228186895,0.00309254229356772,0.00606301054923144,0.00167851802117985
8.7,3,0.909024323252052,0.225491093681651,0.00465915911333557,0.269539475692007,0.000671407208471938,0.00919624418876715,0.010691651153091,-0.0830205186112044,-0.0333363851842809,-0.126600950142928,-0.305439415672272,-0.192439547919146,0.479232154301584,-0.42954802087466,0.00577817112745547,0.0186976734722943,0.00167851802117985
8.73,3,0.948861150954721,0.150954720704774,0.0115258237454349,0.270393993957335,0.0065106153548794,0.0158391064180425,0.0451572211879838,-0.0984832300790429,-0.0270292265592415,-0.145675018565427,-0.395102796512752,-0.153599658192694,0.458286283964558,-0.490340891750847,0.0180771304462823,0.0171107109795424,0.00167851802117985
8.76,3,0.975737784966582,0.103417055777662,0.0259915972370576,0.272245450198879,0.00632750429802342,0.0159916989654225,0.0608233893856624,-0.103976561784722,-0.0283313496302174,-0.128503270566932,-0.566393017365032,-0.11307107760857,0.428469700206509,-0.547013763847774,0.0279244361705374,0.0160425631478825,0.00167851802117985
8.79,3,0.994506668294321,0.0736106448561052,0.0235908078249458,0.274493647063611,0.00796533097323527,0.0118513545131789,0.0862961719616281,-0.108330535803298,-0.032685323648793,-0.098086489455855,-0.576718446404411,-0.0448723817662079,0.394299142429884,-0.599983723461613,0.0032349620044557,-0.0190232042400382,0.00167851802117985
8.82,3,0.994883063244524,0.00813826919359925,-0.0253303628650777,0.270516067995239,-0.0256762393058056,-0.0297860652485733,0.0191961424604022,-0.0535192927844071,-0.0317901140374971,-0.0640888698995941,-0.763796909492274,-0.00683614612262337,0.354736981312499,-0.639881588183233,-0.0275276955473495,-0.0588396862697226,0.00167851802117985
8.85,3,0.968779564806055,-0.0816573585212765,-0.0140486871954507,0.246742149113437,-0.098005106763919,-0.0344553971984008,0.00365204830062766,-0.0645873388877021,-0.0299183121229692,-0.021546067690054,-1.01702932828761,0.022095400860622,0.299976602476068,-0.668548641417686,-0.00600197353027945,-0.0205593025503301,0.00167851802117985
8.88,3,0.93074332916247,-0.124108605202389,0.00474054180527156,0.215124973296304,-0.100772118289743,0.00116987619657989,0.0778730633462528,-0.132094281848608,-0.0278023621326334,0.0191045869319742,-1.02881964578183,0.107801548305714,0.237413658050274,-0.693116041545864,0.00670389924822738,0.00382498652099165,0.00167851802117985
8.91,3,0.890113020213426,-0.13317260251676,0.011098564612771,0.205104729351685,-0.0170598467970824,-0.00363170262764367,0.101067130548011,-0.164647358623005,-0.0226345611946979,0.0640583513901181,-0.901526942757449,0.192083498641926,0.179428490045879,-0.710460727764723,0.0134688355154068,-0.0188706116926583,0.00167851802117985
8.94,3,0.852351451155126,-0.123844111453597,0.0150761436811426,0.205003000986765,-0.000508641824599953,-0.0171717479984944,0.0884528132979319,-0.171361430707724,-0.0191757967874182,0.105858536535742,-0.728456475519069,0.248888617613249,0.13078198594114,-0.721315144301686,0.0160018718019145,-0.0280159916989654,0.00167851802117985
8.97,3,0.82209743542792,-0.0991800693787449,0.0151219214453566,0.201483199560533,-0.0148370820235806,-0.0229346598712119,0.075635039318013,-0.175023651844844,-0.0075787631865393,0.0883765170242419,-0.557140822575559,0.253110344757429,0.0922421948912015,-0.729621265297403,0.0146539709667247,-0.021357870214952,0.00167851802117985
9,3,0.80408134200059,-0.0601723278501745,0.010813725190995,0.195552435885698,-0.0225836970122379,-0.0190537227495142,0.0635904009114861,-0.169245480717388,-0.00269580167037975,0.0712708924629454,-0.375621814630573,0.224758649454227,0.06503494369335,-0.738812423067924,0.00879950356557919,-0.0153508102664266,0.00167851802117985
9.03,3,0.794213690603351,-0.032451348409477,0.00598162785729545,0.190008239997559,-0.0181890316476943,-0.0156153040152186,0.0494705038605915,-0.144545833714815,0.000640888698995941,0.0128584653258868,-0.273547573269855,0.182429476811019,0.0459608752708518,-0.748008667256691,0.00383515935748365,-0.0136214280627867,0.00167851802117985
9.06,3,0.78792179123305,-0.0198624632506282,0.000528987497583951,0.185918759727775,-0.0133620207322408,-0.0143487858719647,0.0489822077089755,-0.112318287708162,-0.00306202378409172,-0.0308135217342652,-0.195618559322896,0.123589790541297,0.032293669443851,-0.755399232968128,0.00141911069063387,-0.0123142185735649,0.00167851802117985
9.09,3,0.7796563615833,-0.0259610787275816,0.00251269061352377,0.181223995686717,-0.0159815261289305,-0.0117140212205369,0.10859502955209,-0.11154515213477,-0.0376903592028565,-0.0370647297585986,-0.0953093050935392,0.131931516464736,0.0224158452101199,-0.756970936206142,0.00319427065848771,-0.00983713288776309,0.00167851802117985
9.12,3,0.775134535762607,-0.0143030081077507,0.00227362895596179,0.17558824427015,-0.0211086357208981,-0.00914538000630716,0.128004801578824,-0.182348094119083,-0.119215470849737,0.139118625446333,0.21261228268278,0.312133142084007,0.0269325846125675,-0.747973062328969,0.0021668141727958,-0.00462864060385957,0.00167851802117985
9.15,3,0.776507868689027,-0.000798567664621927,0.00043234555090996,0.170567949461348,-0.0150456251716666,-0.00198370311593982,-0.0268054241564175,-0.191910560421562,0.00890123193049918,0.0786105939919228,0.242566199733472,0.155140842921232,0.0415306049785862,-0.73472294279814,-0.000549333170567949,-0.00413017161575162,0.00167851802117985
9.18,3,0.781492558570106,0.00623594876959543,-0.000671407208471938,0.16861985127313,-0.00527970213934751,-0.00262967823318176,0.000966419466739911,-0.159764397106845,-0.032400484227017,0.0172327850174464,0.246650593585009,-0.00718710898159734,0.0565762301502528,-0.724702698853521,-0.00236518448438978,-0.00643940549943541,0.00192775251523382
9.21,3,0.791533148187709,0.0180720440280363,-0.00420646788944161,0.164667704295989,-0.0153253781751966,9.66419466739911e-05,0.0185654265978983,-0.165156000447605,-0.0302641885636972,-0.0198472039958902,0.199545274208808,-0.0422172714417961,0.0696228929512416,-0.721676279997152,-0.00549841812392549,-0.0010834070863979,0.0151727856278166
9.24,3,0.802474033834854,0.0243639433983378,-0.00680054119490137,0.160603656117435,-0.0127516505427208,0.000991851557969909,0.021413820815658,-0.160273038931445,-0.0250760419527777,-0.0471714428133997,0.187271746981211,-0.097633798231961,0.0812657043163345,-0.72097944069745,-0.00827051606799524,0.0010630614134139,0.0268003377381715
9.27,3,0.813628549048331,0.0280312509537034,-0.00929288613544115,0.159357483647165,-0.00292977690969573,-0.00167851802117985,0.0166122419914345,-0.162124495172989,-0.022064882351146,-0.0605843277281004,0.174118269397056,-0.101056957711519,0.0919726147241635,-0.721432131921344,-0.0101474044007691,-0.00288908556372773,0.0255643381043936
9.3,3,0.82270780561744,0.0226803389589119,-0.0102033550014751,0.157378866949472,-0.00493382569861955,0.000696839299701936,0.021556240526546,-0.158930224514501,-0.021719005910418,-0.0619780063275043,0.147445092115034,-0.0984934029155349,0.101626636555071,-0.720857366659546,-0.010391552476577,0.000381481368449965,0.0310474969735811
9.33,3,0.831212296924752,0.021429080070396,-0.010432243822545,0.157500940987375,0.000152592547379986,0.000152592547379986,0.0195827102470982,-0.163426618243965,-0.0151676992095706,-0.0526393424278492,0.134281441694388,-0.0938495030569374,0.10994293038728,-0.721009959206926,-0.010620441297647,-0.00228888821069979,0.0305897193314412
9.36,3,0.841074861903745,0.0277871028778954,-0.0119734285510829,0.157628101443525,0.000152592547379986,0.000152592547379986,0.0175074516027304,-0.157811212500381,-0.0161849828587705,-0.0393129266233304,0.127582628864406,-0.0572578101952167,0.117750582394889,-0.723105563524278,-0.0129195023448388,-0.00228888821069979,0.0382346059551785
9.39,3,0.849152094078392,0.0235602893154698,-0.0132399466943368,0.157775607572659,0.000152592547379986,0.000152592547379986,0.0193995991902422,-0.160008545182653,-0.0165512049724825,-0.0233466597491379,0.124790185247353,-0.0136112552262947,0.125293740653706,-0.72362437818537,-0.0132145146031068,-0.00228888821069979,0.043046357615894
9.42,3,0.857132684306365,0.0234636473687958,-0.0131026134016948,0.157806126082135,0.000152592547379986,0.000152592547379986,0.0166936246833705,-0.162734865362509,-0.0188706116926583,-0.02183090711183,0.139006724244921,-0.0181890316476943,0.133136997589038,-0.723746452223273,-0.0135959959715567,-0.00228888821069979,0.0699891150649536
9.45,3,0.865535447248756,0.0256101158686076,-0.0143894772179327,0.157948545793023,0.000152592547379986,0.000152592547379986,0.0175277972757144,-0.160252693258461,-0.0172633035269224,-0.0306100650044252,0.165049185664439,-0.043341369874162,0.142312896104821,-0.722998748741112,-0.0150914029358806,-0.00228888821069979,0.0829900001017284
9.48,3,0.869477421389406,0.0126295765048168,-0.0483514918464716,0.159545681122267,0.00766523229672129,-0.0010681478316599,0.0225531785027619,-0.161575162002421,-0.0162256742047385,-0.032308928698589,0.163792840357677,-0.0347809279661448,0.152165288247322,-0.71708833073926,-0.0658792891221859,-0.00508133182775353,0.0961790826136052
9.51,3,0.849737032176682,-0.0718558305612354,-0.109673350220242,0.160318816695659,0.000473036896877956,-0.00496434420809554,0.0515254168319753,-0.162022766808069,-0.0207424136071861,-0.0256457207963296,0.0413271482487462,-0.00253303628650777,0.157134718873664,-0.69238359731844,-0.103946043275246,-0.00723288674581133,0.153243608915474
9.54,3,0.843083997110914,-0.0310780154830571,-0.0939868363495793,0.160222174748985,0.000152592547379986,-0.00633767713451542,0.010874762209947,-0.142124698629719,-0.0257474491612496,-0.0253201900285857,0.0794345937477747,0.0239875484481338,0.160049236528621,-0.682785526088239,-0.0944242683187353,-0.0134383170059308,0.220730206203396
9.57,3,0.841257972960601,-0.0115461694184189,-0.132567318745486,0.160420545060579,0.000152592547379986,-0.0129805393637908,0.0257474491612496,-0.155735953856014,-0.0169377727591784,-0.0881272825301879,0.0640176600441501,-0.0490686768191575,0.165100049846899,-0.67591886145614,-0.142480747906939,-0.0266477451907915,0.231564277067375
9.6,3,0.815856400240079,-0.0917640715760775,-0.163808099612415,0.160802026429029,0.000152592547379986,-0.0265612760806096,0.0584836369925026,-0.163670766319773,-0.0142114525793227,-0.0805993835261086,-0.0780256558936328,-0.00200913520716982,0.164123457543667,-0.651504053875342,-0.159550767540513,-0.0349233476770328,0.263603625598926
9.63,3,0.794961394085513,-0.0798923713899146,-0.165278074485509,0.159082817061881,-0.0076499730419833,-0.0335398419141209,0.011383404034547,-0.145786919766839,-0.022166610716066,-0.0949736014893033,-0.0552486749880469,-0.00806705933815526,0.159978026673177,-0.634754478591266,-0.168177332885729,-0.0374767296365246,0.298643960895617
9.66,3,0.775714387442651,-0.0727357809177933,-0.196213670257678,0.159128594826095,-0.00120548112430189,-0.0391755933306884,0.0256660664693136,-0.159031952879421,-0.0075991088595233,-0.087369406211534,-0.0781019521673228,-0.0586565752128666,0.155852941475672,-0.619617297891171,-0.198782311471908,-0.0450148014770959,0.313999857580289
9.69,3,0.755068615782138,-0.0786818038473668,-0.214819788201544,0.15596992909533,-0.0147506129133986,-0.0450148014770959,0.0274361400189215,-0.154861089917702,-0.00849431847081922,-0.0463728751487777,-0.0992461928159429,-0.0159357483647165,0.150390128279468,-0.604429253008616,-0.213797418134098,-0.0464898627684357,0.349096143477686
9.72,3,0.735429954934334,-0.0743278298287912,-0.222713909319336,0.150720745465458,-0.0200913520716982,-0.0441297647022919,0.022105573697114,-0.153111362041078,-0.00782291126234728,-0.0346893724377168,-0.097903378398999,-0.00173446862188584,0.144901882992035,-0.590289010284738,-0.232927437157303,-0.0467390972624897,0.393164871161026
9.75,3,0.691381572923978,-0.15482548498998,-0.227932574439731,0.143665883358257,-0.0276853745129755,-0.0441806288847519,0.033051545762505,-0.189530116682435,-0.0125837987406028,0.0379802850428785,-0.223629464603615,0.13263852860093,0.134403515732292,-0.556754254788863,-0.225730155339213,-0.0477309488204596,0.442706584877061
9.78,3,0.649067659535508,-0.157282225002798,-0.242372915840124,0.130512405774102,-0.0521663055309712,-0.04358551794997,0.0231432030192979,-0.137587613554287,-0.0156153040152186,-0.0415611234880622,-0.280027670115258,-0.0412254198838262,0.120583717357911,-0.528275399029511,-0.254356517227699,-0.0458337148147018,0.510386466058331
9.81,3,0.576113162633137,-0.256421603035574,-0.237535732088178,0.11001922666097,-0.0802128157394126,-0.0315968301441491,0.0391145563117364,-0.144708599098687,-0.0196844386120182,0.0138197983743807,-0.573218990651163,-0.126438184759056,0.0946836756492813,-0.481200598162786,-0.254254788862779,-0.0394909512619404,0.556652526423943
9.84,3,0.487314472894477,-0.313130080060223,-0.239890743736076,0.0740938545894752,-0.134357737968078,-0.0266477451907915,0.0291451765495773,-0.163833531703645,-0.0134790083518988,-0.0535498112938831,-0.825220496230964,0.0245216223639637,0.0520950956755272,-0.43499048839788,-0.239560126550086,-0.0190282906582842,0.609413942889696
9.87,3,0.389645069734794,-0.341064689067253,-0.212118900112919,0.0303303120008952,-0.14968820256152,0.000554419588813949,0.0103254290393791,-0.177872046062604,-0.00595110934781945,-0.00721254107282734,-0.981343017873674,-0.00134790083518988,-0.00376394950203965,-0.393292031617176,-0.196010213527838,0.00795007171849727,0.622740358694215
9.9,3,0.281675669626962,-0.375626901048819,-0.123213395591093,-0.0138197983743807,-0.15472375662506,0.0144861191646067,-0.0165105136265145,-0.161331013926613,-0.010671305480107,0.284290088605406,-1.11823887854651,-0.126463616850286,-0.0668609678436638,-0.348470514033428,-0.111245053458256,0.0363678904588967,0.625456506037578
9.93,3,0.181279946287423,-0.344172490615558,-0.0279040904975534,-0.0574154891608427,-0.134159367656484,0.0471358378856777,-0.0226549068676819,-0.152806176946318,-0.010610268461155,0.161097038687297,-0.939649647511216,-0.21362956633198,-0.12989186274809,-0.311115858434807,0.00661743013804539,0.0718202256335134,0.607160659606718
9.96,3,0.108630634479812,-0.242673014516638,0.0715302997934914,-0.0664489679657379,0.00579343038219347,0.0637633391318501,0.010834070863979,-0.187821080151779,0.000661234371979939,0.138030131941689,-0.589785454878384,-0.108757794935962,-0.175603503524888,-0.284117150385042,0.0894344920194098,0.0713522751548814,0.58300017293822
9.99,1,0.0962452060508032,-0.0306354970956552,0.0726340525528733,-0.0416831975259662,0.110619424013998,0.0464949491866817,-0.169326863409324,-0.131076998199408,-0.0259712515640736,0.11289305296996,0.187302265490687,-0.0453149001536098,-0.185817031362855,-0.281980854721722,0.0708131148208055,0.0441246782840459,0.534379100924711
10.02,1,0.0971098971526231,0.0252082888271737,0.0428530737225461,-0.000829086174097924,0.139281390830205,0.0211086357208981,-0.0601112908312225,-0.139581489506719,-0.00576799829096347,0.0671254615924558,0.346354564043092,-0.0236264127526678,-0.170216986602374,-0.267240414644815,0.0302082379629912,-0.043946653645436,0.493519903154597
10.05,1,0.0972523168635111,0.0175634022034364,0.00499486271757154,0.0103152562028871,-0.00885545416628519,-0.0371410260322886,-0.111585843480738,-0.0895107882930998,-0.0260729799289936,-0.00808740501113926,0.193446658731854,0.114988657287311,-0.153085929949848,-0.250261950539669,0.00786868902656128,-0.0253405357015697,0.491068249560025
10.08,1,0.0909248125654876,-0.00610878831344544,0.0166122419914345,-0.0266884365367595,-0.134022034363842,0.0619678334910123,0.0032247891679637,-0.165684987945189,-0.0187485376547543,-0.0640532649718721,0.184494562618895,0.0728832870469273,-0.148218227688426,-0.23904639830724,0.021810561438846,0.120227668080691,0.52239041311889
10.11,1,0.0936409599088514,0.0189570808028403,0.0129500208543148,-0.0335245826593829,0.00881476282031719,0.0472070477411217,-0.0242011780144658,-0.183996093630787,-0.0201523890906501,-0.0599943032115645,0.391191340881578,-0.0671305480107018,-0.129072949410484,-0.222627440209154,0.00680562761314737,0.0278277942238634,0.627674184392834
10.14,1,0.0963876257616911,0.011001922666097,-0.00384024577572965,-0.0350810266426588,-0.00719219539984334,0.0266070538448235,-0.0156559953611866,-0.176285083569852,-0.00424207281716361,-0.0673492639952798,0.421628467665639,-0.0563371684926908,-0.104444512263354,-0.20072532324188,-0.0021617277545498,0.0337890764081749,0.719056774600462
10.17,1,0.104993845433922,0.0197251299579862,-0.00348928291675568,-0.0281889299193294,0.0275989054027935,0.011347799106825,0.00802636799218726,-0.162795902381461,-0.00904365164138717,-0.0394197414064964,0.239366842656738,-0.00335194962411369,-0.0818252103233945,-0.186946216213467,-0.0121463667714469,0.00626138086082542,0.773069449954731
10.2,1,0.109235918251086,0.00556454156112349,-0.0175888342946664,-0.0208187098808761,0.0183823155410423,0.00269071525213375,-0.000335703604235969,-0.159540594704021,-0.00666320790225939,-0.0143538722902107,0.128752505060986,-0.0178635008799504,-0.0675628935616118,-0.176676737774794,-0.0167444888658305,0.0043234555090996,0.786528112633646
10.23,1,0.101255328023113,-0.0291502629678233,-0.00399792474135563,-0.0169174270861944,0.0115665150914029,0.00372834457431766,0.00847397279783522,-0.155064546647542,-0.011200292977691,-0.00262459181493576,-0.0418713950010682,0.00777713349813328,-0.0607674387849564,-0.161966816207363,0.000930814539017914,0.00467441836807357,0.795363221126947
10.26,1,0.0917589851578316,-0.0251319925534837,0.00129195023448388,-0.0160222174748985,0.000478123315123956,0.00690226955982136,-0.0414746543778802,-0.164972889390749,-0.010589922788171,-0.0131026134016948,-0.0509811700796533,0.0043946653645436,-0.0660013631600899,-0.157643360698263,0.000381481368449965,0.0130364899644968,0.799635812453586
10.29,1,0.0674306466872158,-0.0692210659098076,0.0181432538834803,-0.0158950570187485,0.000152592547379986,0.010600095624663,0.00916572567929116,-0.15327412742495,-0.00778221991637928,-0.00098167872147791,-0.032308928698589,-0.0137841934466587,-0.0665710420036419,-0.133899960325938,0.0298725343587553,0.0137333292641987,0.798613442386141
10.32,1,0.0458845789971618,-0.0629495122124902,0.0398419141209143,-0.0158696249275185,0.000152592547379986,0.0123447370830409,-0.0396842351552883,-0.163223161514125,-0.0131738232571388,-0.0256050294503616,0.0387941119622384,-0.0167953530482905,-0.0671661529384238,-0.112954089988912,0.0397910499384543,0.0137333292641987,0.798888108971424
10.35,1,0.0303557440921252,-0.043697419151382,0.0349691254412468,-0.0145624154382967,0.00743125705740532,0.0118615273496709,-0.0115258237454349,-0.158421582689901,-0.0116478977833389,-0.02134769737846,0.086855677968688,-0.0119632557145909,-0.0629291665395062,-0.0931984415214494,0.0335907060965809,0.00825017039501124,0.798674479405093
10.38,1,0.0158543656727805,-0.0419731233659881,0.0347656687114068,-0.011342712688579,0.00853500981678721,0.00198878953418582,-0.0150252794986826,-0.160924100466933,-0.00778221991637928,-0.0087384665466272,0.0914232815535956,-0.0132196010213528,-0.0576392915636667,-0.0734021017080193,0.0362305571662547,0.00363678904588967,0.80634479812006
10.41,1,0.000834172592343923,-0.044033122755618,0.0401877905616423,-0.00729901018300933,0.0166783654286325,-0.000559506007059949,-0.0119937742240669,-0.160557878353221,-0.00631733146153142,0.00494908495335754,0.0989969583218889,-0.010727256080813,-0.0517746513260292,-0.0524613177892392,0.0413169754122542,-0.00305185094759972,0.814157536545915
10.44,1,-0.0157780693990905,-0.0505437381104974,0.0475020599993896,-0.00197353027944782,0.0177007354960784,-0.00397757906837163,-0.0155135756502986,-0.160659606718141,-0.00739565212968332,0.021764783674632,0.0990783410138249,-0.0101931821649831,-0.0458642333241778,-0.0298674479405093,0.0490991953286335,-0.00932849106316314,0.815317239906003
10.47,1,-0.0309762871181372,-0.0463067517115797,0.0525325276446832,0.00271106092511775,0.0159255755282245,-0.00802636799218726,-0.0233059684031699,-0.161676890367341,-0.00741599780266732,0.0355184586118147,0.144571265806045,-0.0156102175969726,-0.0387381613615324,-0.0075533310953093,0.0527258115380311,-0.0127974283069348,0.822026225572476
10.5,1,-0.0447452213100579,-0.0426445305744601,0.0530818608152511,0.00778221991637928,0.0183823155410423,-0.0129449344360688,-0.00515762810144353,-0.158808150476597,-0.0076194545325073,0.0583310444451226,0.169352295500554,-0.00558488723410749,-0.0291858678955453,0.0156356496882026,0.0534938606931771,-0.0190384634947762,0.821344645527512
10.53,1,-0.0562201808730328,-0.0361593473108107,0.054526403597115,0.0154118472853786,0.0272632017985575,-0.0207576728619241,-0.0249132765689057,-0.160008545182653,-0.00857570116275521,0.075752026937671,0.223471785637989,-0.0137791070284127,-0.0173904639830724,0.0388856674906664,0.054857020783105,-0.0301929787082532,0.819610176905627
10.56,1,-0.0619678334910123,-0.0169581184321624,0.0500707012136194,0.0252133752454197,0.032400484227017,-0.0363271991129287,-0.0187485376547543,-0.163975951414533,-0.00804671366517126,0.086703085421308,0.310983611560411,-0.0248624123864457,-0.00150557980081586,0.0606199326558224,0.0486668497777235,-0.0445163324889879,0.832870469272947
10.59,1,-0.0627257098096662,-0.00205999938962981,0.0389975686920784,0.0362763349304687,0.0402996917630543,-0.0550960824406669,-0.00348928291675568,-0.159520249031037,-0.0119937742240669,0.115665150914029,0.346110415967284,-0.010478021586759,0.0186213771986043,0.0815607165746025,0.0389467045096184,-0.0580716371145767,0.84344513280638
10.62,1,-0.0628681295205542,-0.000305185094759972,0.0394400870794804,0.0493992940051475,0.0417035431989502,-0.0724662007507553,-0.011159601631723,-0.167190567746005,-0.0148828597877946,0.137429934588661,0.371573025706758,-0.0133569343139948,0.0384228034302805,0.101529994608397,0.0388042847987304,-0.0718761762342194,0.84499649037141
