time,Mode,Knee_Angle,Knee_Velocity,Knee_Current,Ankle_Angle,Ankle_Velocity,Ankle_Current,Acc_X,Acc_Y,Acc_Z,Gyro_X,Gyro_Z,Gyro_Y,Shank_Angle,Thigh_Angle,Knee_Ref_Torque,Ankle_Ref_Torque,Filtered_Vertical_Load
0,1,0.010956144901883,0.000152592547379986,-0.00689718314157537,-0.00410982594276762,0.000152592547379986,0.00340790022481969,-0.0126651814325388,-0.159357483647165,-0.00249234494053977,-0.0200913520716982,0.032186854660685,0.00194301176997182,-0.0700806705933816,-0.0809656056398205,-0.00628681295205542,0.00350962858973968,0.592232022054709
0.03,1,0.00929797255368714,0.000152592547379986,-0.00594093651132745,-0.00303150527461572,0.0065106153548794,0.00246182643106377,-0.0136824650817387,-0.160781680756045,-0.00249234494053977,-0.0164494766075625,0.0402844325083163,0.000885036774803919,-0.0686768191574857,-0.0779137546922208,-0.00531022064882351,-0.000264493748791976,0.609566535437076
0.06,1,0.00777204707988728,0.000152592547379986,-0.00494399853511155,-0.00183111056855983,0.00162765383871985,-0.00153609831029186,-0.0116885891293069,-0.160130619220557,-0.00257372763247576,-0.0158797977640105,0.0525020091352072,-0.00043743196915596,-0.0661234371979939,-0.0737937559129612,-0.0043641468550676,-0.000457777642139958,0.625303913490198
0.09,1,0.00661234371979939,0.000152592547379986,-0.00409965310627562,-0.00097659230323191,0.00700908434298736,-0.000467950478631957,-0.0129907122002828,-0.159764397106845,-0.000946073793755913,-0.0153304645934426,0.0690837326171656,0.00097659230323191,-0.0620949939471623,-0.0686157821385337,-0.00354014709921567,-0.00279753003529974,0.636565243486842
0.12,1,0.00611387473169144,0.000152592547379986,-0.00357066560869167,0.00119022186956389,0.00749738049460331,-0.00263476465142776,-0.0121361939349549,-0.159642323068941,-0.00163782667521185,-0.0115258237454349,0.0815658029928485,0.000640888698995941,-0.0602537105421105,-0.0662862025818659,-0.00320444349497971,-0.00524918362987152,0.641448205003001
0.15,1,0.0065614795373394,0.000152592547379986,-0.00313323363953571,0.00501520839055554,0.0140792057049267,-0.00549333170567949,-0.00916572567929116,-0.159601631722973,-0.00188197475101983,-0.0121463667714469,0.0942818486078473,0.000671407208471938,-0.054404329559211,-0.0608539078951384,-0.00338755455183569,-0.0126346629230628,0.6531469669688
0.18,1,0.00806705933815526,0.000152592547379986,-0.00385550503046765,0.00915555284279916,0.011200292977691,-0.010559404278695,-0.00265511032441176,-0.159276100955229,-0.00143436994537187,-0.0134077984964548,0.0635497095655182,0.00132246874395988,-0.0460727764722638,-0.054048280281991,-0.00423189998067161,-0.0173650318918424,0.661498865728731
0.21,1,0.00972523168635111,0.000152592547379986,-0.00449639372946359,0.0116987619657989,0.00811792352061525,-0.0141605883968627,-0.00733461511073133,-0.159967853836685,-0.000742617063915932,-0.0127567369609668,0.0274463128554135,0.00611387473169144,-0.0414339630319122,-0.0510778120263273,-0.00534073915829951,-0.0155644398327586,0.666269926043479
0.24,1,0.011159601631723,0.000152592547379986,-0.0054831588691875,0.0117903174942269,0.000193283893347982,-0.0137841934466587,-0.00676493626717938,-0.159113335571357,-0.000986765139723909,-0.0137638477736747,0.021820734275338,0.00144454278186387,-0.0389517909278644,-0.0500401827041434,-0.00616473891415143,-0.0101931821649831,0.683441674041973
0.27,1,0.0124718975391909,0.000152592547379986,-0.0065004425183874,0.0118717001861629,0.000152592547379986,-0.0114240953805149,-0.00521866512039552,-0.160415458642333,-0.000335703604235969,-0.011332539852087,0.00696839299701936,-0.00395723339538764,-0.0383515935748365,-0.0507726269315673,-0.00699891150649536,-0.0100711081270791,0.694743695384584
0.3,1,0.0135502182073428,0.000152592547379986,-0.00716167689036734,0.0128482924893948,0.00580868963693147,-0.010783206681519,-0.00721254107282734,-0.160293384604429,0.000722271390931934,-0.00677510910367138,-0.00417086296171962,-0.0054628131962035,-0.0376089765109205,-0.0510778120263273,-0.00775170140690329,-0.0130619220557268,0.69772433647674
0.33,1,0.0142623167617827,0.000152592547379986,-0.00785342977182328,0.0143742179631947,0.00232957955666779,-0.0139978230129907,-0.0076194545325073,-0.160049236528621,-0.000376394950203965,-0.00285856705425174,-0.00345876440727968,-0.00632750429802342,-0.0387686798710084,-0.0529394411043631,-0.00808740501113926,-0.0154830571408226,0.700816878770308
0.36,1,0.0147709585863826,0.000152592547379986,-0.00823999755851924,0.0142521439252907,0.000152592547379986,-0.0134891811883908,-0.00729392376476333,-0.160171310566525,-5.08641824599953e-05,0.00476088747825556,-0.0043743196915596,-0.00566626992604348,-0.0390433464562924,-0.0537329223507391,-0.00854518265327921,-0.0120548112430189,0.700552385021516
0.39,1,0.0150151066621906,0.000152592547379986,-0.00848414563432722,0.0141504155603707,0.000152592547379986,-0.0125024160486668,-0.00810775068412325,-0.159886471144749,-0.000132246874395988,0.00796533097323527,0.00302133243812372,-0.00254320912299977,-0.0396638894823044,-0.054577267779575,-0.00854518265327921,-0.0120548112430189,0.701030508336639
0.42,1,0.0152185633920306,0.000152592547379986,-0.00855535548977121,0.0140385143589587,0.000152592547379986,-0.0121870581174149,-0.00745668914863531,-0.159520249031037,0.000356049277219967,0.00898261462243517,0.00253303628650777,0.0011088391776279,-0.0400809757784763,-0.0552486749880469,-0.00860621967223121,-0.0120548112430189,0.697388632872504
0.45,1,0.0154118472853786,0.000152592547379986,-0.00880967640207119,0.0138960946480707,0.000152592547379986,-0.0119429100416069,-0.00700908434298736,-0.159560940377005,-0.000823999755851924,0.00849431847081922,0.00290943123671173,0.00157678965625985,-0.0398978647216203,-0.0551774651326029,-0.00900296029541917,-0.0119734285510829,0.695883053071688
0.48,1,0.0154118472853786,0.000152592547379986,-0.00903347880489517,0.0137333292641987,0.000152592547379986,-0.0119022186956389,-0.00741599780266732,-0.159560940377005,-0.000701925717947935,0.0101219723095391,0.000803654082867926,-0.00175990071311584,-0.0396028524633524,-0.0549740084027629,-0.00900296029541917,-0.0114444410534989,0.697937966043072
0.51,1,0.0154118472853786,0.000152592547379986,-0.00903347880489517,0.0137333292641987,0.000152592547379986,-0.0116173792738629,-0.00700908434298736,-0.160130619220557,-0.00114953052359589,0.0116987619657989,-0.00250251777703177,-0.00333669036937569,-0.0397961363567003,-0.0551062552771589,-0.00900296029541917,-0.0114444410534989,0.696066164128544
0.54,1,0.0153304645934426,0.000152592547379986,-0.00900296029541917,0.0136722922452467,0.000152592547379986,-0.0114953052359589,-0.00578834396394747,-0.160049236528621,-0.00147506129133986,0.00797550380972727,-0.010895107882931,-0.00702943001597135,-0.0397554450107323,-0.0550146997487309,-0.00900296029541917,-0.0114444410534989,0.695394756920072
0.57,1,0.0151575263730786,0.000152592547379986,-0.00889105909400718,0.0135807367168188,0.000152592547379986,-0.0115665150914029,-0.00452691223893958,-0.159764397106845,-0.0010681478316599,0.00481175166071556,-0.0276192510757775,-0.0120751569160029,-0.0389924822738324,-0.054027934609007,-0.00863673818170721,-0.0114444410534989,0.696646015808588
0.6,1,0.0144250821456547,0.000152592547379986,-0.00861639250872321,0.0121768852809229,-0.00743634347565132,-0.0097760958688111,-0.00167851802117985,-0.159154026917325,-0.00167851802117985,0.00557471439761549,-0.0622882778405103,-0.0117699718212429,-0.0384940132857245,-0.0528377127394431,-0.00836207159642323,-0.0054424675232195,0.694235053559984
0.63,1,0.0125634530676188,0.000152592547379986,-0.00794498530025127,0.0118106631672109,-9.15555284279916e-05,-0.00394706055889564,-0.00411999877925962,-0.160374767296365,-0.000457777642139958,0.00454725791192358,-0.0985239214250109,-0.010773033845027,-0.0397656178472243,-0.0522273425499232,-0.00738547929319132,-0.00945056510106713,0.692261523280536
0.66,1,0.00680562761314737,-0.00770083722444329,-0.00452691223893958,0.0114342682170069,-0.00331634469639169,-0.00635802280749942,-0.0258898688721376,-0.160171310566525,-0.000254320912299977,0.00677510910367138,-0.0478123315123956,-0.0143335266172267,-0.0474155908892076,-0.054129662973927,-0.00184128340505183,-0.00948108361054313,0.694377473270872
0.69,1,0.000447604805647959,-0.00903347880489517,0.00489313435265155,0.00998972543514308,-0.00305185094759972,0.000122074037903989,-0.0158797977640105,-0.159194718263293,-0.00289925840021973,0.00508641824599953,0.00880967640207119,-0.00818913337605925,-0.0504267504908394,-0.0507115899126153,0.00516780093793552,-0.00480157882422356,0.692007202368236
0.72,1,-0.00256355479598376,-0.000396740623187963,0.00225836970122379,0.0097760958688111,-0.000986765139723909,-0.00480157882422356,-0.00855535548977121,-0.159276100955229,-0.00180059205908383,-0.000590024516535946,0.0287382630898974,-0.00820947904904324,-0.0530411694692831,-0.0502639851069674,0.00170903653065584,-0.0065614795373394,0.693116041545864
0.75,1,-0.00769066438795129,-0.00773135573391929,0.0054526403597115,0.0100304167811111,0.000152592547379986,-0.00640888698995941,-0.00904365164138717,-0.159438866339101,-0.00285856705425174,-0.00394706055889564,0.0210781172114221,-0.00504572690003154,-0.0504064048178554,-0.0425122837000641,0.00808740501113926,-0.00833155308694723,0.695221818699708
0.78,1,-0.0122684408093509,-0.00894192327646718,0.00893175043997518,0.011037527593819,0.00485244300668355,-0.00787377544480728,-0.00847397279783522,-0.158869187495549,-0.00411999877925962,-0.0152592547379986,0.0228685364340139,-0.00284839421775974,-0.0495315408795434,-0.0370189519943846,0.011108737449263,-0.010335601875871,0.698171941282388
0.81,1,-0.0173039948728904,-0.011027354757327,0.0140283415224667,0.0127363912879828,0.0032858261869157,-0.0127974283069348,-0.00916572567929116,-0.159845779798781,-0.00196335744295582,-0.0260628070925016,0.0162053285317545,-0.00378429517502365,-0.0484227017019155,-0.0308949044262012,0.0156865138706626,-0.0150456251716666,0.739890743736076
0.84,1,-0.021688487400942,-0.0097659230323191,0.0170496739605904,0.0125329345581428,0.000152592547379986,-0.0117903174942269,-0.00908434298735517,-0.159805088452813,-0.000823999755851924,-0.032675150812301,0.0234076967680898,-0.00784325693533128,-0.0474461093986836,-0.0255338195949176,0.0179957477543463,-0.010528885769219,0.793664357432783
0.87,1,-0.0258390046896776,-0.00955229346598712,0.0190842412589902,0.0127567369609668,0.000783308409883928,-0.011037527593819,-0.0102237006744591,-0.160130619220557,0.0011291848506119,-0.0272225104525895,0.0351674957528408,-0.0097557501958271,-0.0459812209438358,-0.0199184138513342,0.0204677470219021,-0.010528885769219,0.839197973570971
0.9,1,-0.0285754977060254,-0.00480157882422356,0.021312092450738,0.0149337239702546,0.00735496078371532,-0.0141809340698467,-0.0120141198970509,-0.160618915372173,0.00206508580787581,-0.0184840439059623,0.0487482324696595,-0.011190120141199,-0.0446689250363679,-0.0158696249275185,0.0206915494247261,-0.0182907600126143,0.865779595324564
0.93,1,-0.032227546006653,-0.00801619515569526,0.021647796054974,0.0167444888658305,0.00784325693533128,-0.0160222174748985,-0.00534073915829951,-0.160618915372173,0.00145471561835587,-0.0121768852809229,0.0454827519557278,-0.00938952808211514,-0.04376354258858,-0.011332539852087,0.0230313018178859,-0.0195115003916542,0.868058310698772
0.96,1,-0.0371105075228126,-0.0141097242144027,0.0264086835332296,0.0188706116926583,0.00773135573391929,-0.0186976734722943,-0.00794498530025127,-0.160212001912493,0.0010478021586759,-0.000996937976215908,0.0411999877925962,-0.00719219539984334,-0.0410880865911842,-0.00375377666554765,0.0290434481846573,-0.021312092450738,0.87048961862036
0.99,1,-0.0413424075034842,-0.0114749595629749,0.0314645832697531,0.0203965371664581,0.00401827041433963,-0.0207729321166621,-0.00965402183090711,-0.158869187495549,0.00186162907803583,0.00718202256335134,0.0514542069765313,-0.00787377544480728,-0.0383821120843125,0.00306202378409172,0.0313628549048331,-0.0185450809249143,0.882768232266203
1.02,1,-0.0452792952258878,-0.00989816990671509,0.0318002868739891,0.0228278450880459,0.00797550380972727,-0.022217474898526,-0.00664286222927539,-0.158462274035869,0.000559506007059949,0.0170801924700664,0.0674764244514298,-0.00681580044963937,-0.0342824589780368,0.011027354757327,0.0320240892768131,-0.0252184616636657,0.886939095227922
1.05,1,-0.0488804793440555,-0.00996937976215908,0.0346283354187648,0.0257271034882656,0.010884935046439,-0.0258491775261696,-0.00725323241879533,-0.159357483647165,0.000885036774803919,0.0258695231991536,0.0864080731630401,-0.00715150405387534,-0.0299488306324452,0.0190028585670543,0.0346690267647328,-0.0307016205328532,0.882961516159551
1.08,1,-0.0530716879787591,-0.0131941689301228,0.0368867051199886,0.0307321390423292,0.0183924883775343,-0.033031200089521,-0.00302133243812372,-0.159520249031037,0.0010884935046439,0.0345367798903368,0.10595009206417,-0.00190232042400382,-0.0244249804172898,0.0287179174169134,0.0390230007833084,-0.0380158899706005,0.8704387544379
1.11,1,-0.0570390942106388,-0.010935799228899,0.0406506546220283,0.0371003346863206,0.0205694753868221,-0.043010752688172,-0.0115258237454349,-0.161432742291533,0.00129195023448388,0.0388195440534684,0.136590675578071,-0.00604266487624744,-0.0175684886216824,0.0395214697714164,0.0407015188044883,-0.0473545538702556,0.87516912340668
1.14,1,-0.0583005259356466,-0.00342824589780368,0.0373648284351126,0.0421155430768761,0.0160018718019145,-0.0474868007446516,-0.00440483820103559,-0.162775556708477,0.000152592547379986,0.0505895158747113,0.169571011485132,-0.00704977568895535,-0.0124312061932229,0.0459201839248838,0.0366629027171646,-0.0478530228583636,0.879807936847031
1.17,1,-0.0604266487624744,-0.00594093651132745,0.0402539139988403,0.0487787509791355,0.0240791039765618,-0.0571408225755587,0.000803654082867926,-0.160659606718141,-0.000254320912299977,0.0598264514094465,0.198746706544186,-0.00963367615792311,-0.00172938220363984,0.0588295134332306,0.0406710002950123,-0.0583513901181066,0.88535213273517
1.2,1,-0.0606199326558224,-0.000183111056855983,0.0374665568000326,0.0582496617531866,0.0335296690776289,-0.0729392376476333,0.00239061657561978,-0.160985137485885,-5.08641824599953e-05,0.0780968657490768,0.233792128259122,-0.00312306080304371,0.0116784162928149,0.0725221513514613,0.0373546555986206,-0.0732037313964253,0.885921811578723
1.23,1,-0.0607318338572344,0.000152592547379986,0.0372224087242246,0.0683919797357097,0.0320647806227811,-0.0826949878434604,-0.00147506129133986,-0.161798964405245,-0.00310271513005971,0.0833663950519323,0.260648416598,-0.010559404278695,0.021403647979166,0.0823796299122084,0.0372325815607166,-0.0825525681325724,0.883978799808751
1.26,1,-0.0608742535681224,0.000152592547379986,0.0372122358877326,0.0796024455498927,0.0385448774681845,-0.0936409599088514,0.00198370311593982,-0.160985137485885,-0.00534073915829951,0.0835596789452803,0.296731467635121,-0.00461846776736758,0.0373139642526526,0.0984120202235989,0.0372325815607166,-0.0958179469181392,0.880469171219011
1.29,1,-0.0608844264046144,0.000152592547379986,0.0371817173782566,0.0903144423759677,0.0342417676320688,-0.103223771884315,0.00849431847081922,-0.162409334594765,-0.00391654204941964,0.0813928647724845,0.334035259051281,-0.011037527593819,0.0511693675547553,0.11225725068921,0.0372325815607166,-0.102298043763543,0.879360332041383
1.32,1,-0.0592160812199265,0.00596128218431145,0.0359609769992167,0.104668314666178,0.0462050233466597,-0.123508407849361,0.00210577715384381,-0.165623950926237,0.00161748100222785,0.0987375509913429,0.387351095105848,-0.00354014709921567,0.0722373119296854,0.131677195552436,0.0340688294117049,-0.12564470351268,0.86921801405886
1.35,1,-0.0563880326751508,0.00841293577888323,0.0312814722128971,0.116092410046693,0.0382091738639485,-0.126753542690308,0.00857570116275521,-0.17449466434726,-0.00810775068412325,0.148706523840042,0.45844904934843,0.0142419710887987,0.0963265887427391,0.152948596657206,0.0312814722128971,-0.127669097974588,0.85206661173335
1.38,1,-0.0449334187851599,0.0365611743522446,0.0204779198583941,0.125837987406028,0.0238959929197058,-0.128910184026612,-0.0162460198777225,-0.208024333424889,-0.00965402183090711,0.166905728324229,0.583086642048402,0.0355947548855047,0.127292703024384,0.172419405702892,0.0123193049918109,-0.130853195796584,0.817590868861965
1.41,1,-0.0273242388175095,0.0495213680430514,-0.00361135695465967,0.129785047964924,0.00942004659159113,-0.121290729494105,-0.0022075055187638,-0.213192134362824,-0.0138452304656107,0.141148106326487,0.761935280414238,0.021403647979166,0.169377727591784,0.196946114485102,-0.00636819564399141,-0.122216457614877,0.737306843267108
1.44,2,0.00926745404421115,0.104851425723034,-0.0304371267840612,0.127109591967528,-0.0146488845484787,-0.103010142317983,0.0357575202693767,-0.184464044109419,-0.0456658630125838,0.19703767001353,0.665710420036419,0.196559546698406,0.210740480768253,0.201574755088961,-0.0479649240597756,-0.102949105299031,0.514592933947773
1.47,2,0.0519221574551632,0.122104556413465,-0.0746991383607491,0.117333496098717,-0.043590604368216,-0.0877915789259519,0.0507726269315673,-0.175186417228716,-0.022024191005178,0.231788079470199,0.546627196061078,0.319905189163895,0.248980173141677,0.197129225541958,-0.0691854609820856,-0.0952584409110792,0.265755180516984
1.5,2,0.0963876257616911,0.137058626056703,-0.0285958433790094,0.0847600736513362,-0.135044404431288,-0.107964313689586,-0.000295012258267973,-0.229224524674215,0.00234992522965178,0.194524979400006,0.538204087445702,0.301075268817204,0.280404065065462,0.184097821995707,0.022075055187638,-0.138309884945219,0.112938830734174
1.53,2,0.184738710694703,0.290943123671173,0.0481582079531236,0.00663268939278339,-0.305195267596464,-0.0959095024465672,-0.0565304523860388,-0.323384299244158,0.0370596433403526,0.0426953947569201,0.701834162419507,0.0577613656015707,0.315612252164271,0.130944751325012,0.0403047781813003,-0.0163986124251025,0.0986053041169469
1.56,2,0.311604154586423,0.429385255490788,-0.000193283893347982,-0.0423800368256681,-0.0952482680745872,0.0161239458398185,0.0087384665466272,-0.240007731355734,0.0289620654927213,0.130741294595172,1.24397513758761,-0.19159520249031,0.375438703573717,0.0639362773522141,-0.00482192449720756,0.0783104953154088,0.106489252398246
1.59,2,0.435214290800704,0.422223578600421,-0.0130212307097588,-0.0259509058910896,0.0842514318267363,0.0387890255439924,-0.11276589251381,-0.0962858973967711,-0.000661234371979939,0.0267952513199255,0.783766187526068,-0.534287545396283,0.43961912900174,0.00454725791192358,-0.0145878475295267,0.0348114464756208,0.0332956938383129
1.62,2,0.545782850632242,0.377931048514257,-0.0179550564083783,0.010834070863979,0.137373983987955,0.0258186590166936,-0.0586057110304066,-0.156671854813278,-0.0192571794793542,-0.161890519933673,0.437503179011404,-0.287759025849178,0.475641143019908,-0.0699077323730176,-0.0203863643299661,0.00785342977182328,0.00814844203009125
1.65,2,0.625863419497258,0.277413251136814,-0.0171208838160344,0.0460015666168198,0.114658040101321,0.0129296751813308,-0.0745160273038931,-0.0729290648111413,-0.0151880448825546,-0.0988901435387229,-0.154067608671326,-0.127597888119144,0.483321634571368,-0.142277291177099,-0.0172633035269224,-0.00594093651132745,0.00299081392864772
1.68,2,0.675974812056846,0.17769910784224,-0.043031098361156,0.0682190415153457,0.0678935107476017,0.000315357931251971,-0.0421664072593361,-0.0673543504135258,-0.0195420189011302,-0.0884629861344239,-0.651295510727256,-0.0905687632882677,0.45743176569923,-0.218298898281808,-0.065004425183874,-0.0243741162348298,0.00191249326049582
1.71,2,0.657684052044232,-0.0573646249783827,-0.0883205664235359,0.0711488184250415,-0.00621560309661143,-0.0181178217922503,-0.162165186518957,0.0483311461734876,-0.0174260689107944,-0.0633462528356782,-1.45552944527523,-0.0910875779493596,0.396608376313567,-0.260821354818364,-0.0910061952574236,-0.0267138686279895,0.00159713532924385
1.74,2,0.580299284849595,-0.257403281757052,-0.0448011719107639,0.0608844264046144,-0.0353912981556647,-0.0188807845291503,-0.0529496139408551,-0.117241940570289,-0.0199082410148422,-0.0252794986826177,-2.18097476119266,-0.227942747276223,0.281685842463454,-0.298369294310333,-0.0454217149367758,-0.0122277494633829,0.00167851802117985
1.77,2,0.467879268776513,-0.372254605751722,-0.0205898210598061,0.0515152439954833,-0.0270597450687175,-0.0144454278186387,0.011383404034547,-0.255429751477604,-0.0272326832890815,-0.0554826502273629,-2.4722128971221,0.00205491297138381,0.139805291909543,-0.327840001627654,-0.00966419466739911,-0.010681478316599,0.00167851802117985
1.8,2,0.336853134759565,-0.431623279519028,0.0149337239702546,0.0452792952258878,-0.0210374258654541,-0.0133772799869788,0.0497146519363994,-0.341654713583789,-0.0168156987212745,-0.0667134617145299,-2.24754580319631,0.135858231350647,-0.00130212307097588,-0.337992492446669,0.0190232042400382,-0.010579749951679,0.00167851802117985
1.83,2,0.221849218217516,-0.384879095838293,0.0279346090070294,0.0402640868353323,-0.0147099215674306,-0.010935799228899,0.0716472874131494,-0.335713777072461,-0.010467848750267,-0.0772220018107649,-1.92467014577675,0.350627155369732,-0.12920519628488,-0.350952686137476,0.0307016205328532,-0.0102135278379671,0.00167851802117985
1.86,2,0.136102379426455,-0.289112013102613,0.0279142633340454,0.0379955442976165,-0.0043031098361156,-0.010864589373455,0.0497960346283354,-0.272682882168035,0.00320444349497971,-0.0714540035198014,-1.56551815342672,0.301889095736564,-0.232327239804275,-0.368348236538794,0.0287382630898974,-0.011251157160151,0.00167851802117985
1.89,2,0.0802433342488886,-0.188736635436059,0.021240882595294,0.0381176183355205,0.000152592547379986,-0.0118004903307189,0.0359609769992167,-0.22100487278868,-0.00900296029541917,-0.097649057486699,-1.10275582140568,0.104586931974242,-0.310607216610207,-0.390748822494176,0.0202235989460941,-0.0134281441694388,0.00167851802117985
1.92,2,0.0492568742942595,-0.105248166346222,0.0138045391196427,0.0380565813165685,0.000152592547379986,-0.0127262184514908,0.0263985106967376,-0.185603401796523,-0.0159204891099785,-0.0883816034424879,-0.797346924242887,-0.0658284249397259,-0.366710409863582,-0.415896074302398,0.011200292977691,-0.0134281441694388,0.00167851802117985
1.95,2,0.0355337178665527,-0.0472324798323517,0.00635802280749942,0.0379955442976165,0.000152592547379986,-0.0132348602760908,0.0151676992095706,-0.162246569210893,-0.0234076967680898,-0.0606809696747744,-0.577338989430423,-0.130904059979044,-0.407066052227343,-0.442498041728975,0.00342824589780368,-0.0134281441694388,0.00167851802117985
1.98,2,0.0313323363953571,-0.0151371807000946,0.000457777642139958,0.0379446801151565,0.000152592547379986,-0.0139266131575467,0.00527970213934751,-0.155247657704398,-0.0200303150527462,-0.0424003824986521,-0.436038290556556,-0.124780012410861,-0.43671987060152,-0.467950478631957,-0.0011190120141199,-0.0134281441694388,0.00167851802117985
2.01,2,0.0315764844711651,-4.06913459679963e-05,-0.00228888821069979,0.0377412233853165,0.000152592547379986,-0.0135400453708508,-0.00753807184057131,-0.150242622150334,-0.0130314035462508,-0.0448825546026999,-0.327585680715354,-0.101128167566963,-0.428011922564369,-0.459507024343598,-0.00391654204941964,-0.0130619220557268,0.00167851802117985
2.04,2,0.0316782128360851,-0.00138350576291187,-0.00378429517502365,0.0363068534399447,-0.00680562761314737,-0.0134179713329468,-0.0134383170059308,-0.149428795230974,-0.00916572567929116,-0.0630410677409182,-0.205531988484349,-0.0844955799025442,-0.390708131148208,-0.422294788455865,-0.00366222113711966,-0.010661132643615,0.00167851802117985
2.07,2,0.0344248786889248,0.00245165359457177,-0.00381481368449965,0.0356151005584887,-9.15555284279916e-05,-0.0121361939349549,-0.032074953459273,-0.139011810663167,-0.0101830093284911,-0.076255582344025,-0.112216559343242,-0.0920845159255755,-0.358765424563331,-0.393129266233304,-0.0043234555090996,-0.0122786136458429,0.00167851802117985
2.1,2,0.0392773216956084,0.00620543026011943,-0.00507624540950753,0.0357880387788527,0.000152592547379986,-0.0121158482619709,-0.0456251716666158,-0.131076998199408,-0.011240984323659,-0.086998097679576,-0.176183355204932,-0.0999684642068748,-0.359975992105879,-0.399151585436567,-0.00627664011556342,-0.0125125888851588,0.00167851802117985
2.13,2,0.0415662099063082,0.000488296151615955,-0.00596128218431145,0.0359813226722007,0.000152592547379986,-0.0123091321553189,-0.0281278929003774,-0.133518478957488,-0.0185654265978983,-0.087506739504176,-0.116245002594073,-0.0159204891099785,-0.365621916358938,-0.407106743573311,-0.00564592425305948,-0.0125125888851588,0.00167851802117985
2.16,2,0.043366801965392,0.000152592547379986,-0.00560523290709148,0.0360627053641367,0.000152592547379986,-0.0124413790297149,-0.0346385082552568,-0.142470575070447,-0.0126651814325388,-0.0965300454725791,-0.0771914833012889,0.0702129174677775,-0.352387056082848,-0.395682648192796,-0.00564592425305948,-0.0125125888851588,0.00167851802117985
2.19,2,0.0448927274391919,0.000152592547379986,-0.00566626992604348,0.0362051250750247,0.000152592547379986,-0.0124413790297149,-0.032644632302825,-0.158747113457645,-0.00835189875993123,-0.114383373516037,-0.0186671549628183,0.105217647836746,-0.332316049684133,-0.377157912940865,-0.00589007232886746,-0.0125125888851588,0.00167851802117985
2.22,2,0.0461236406547238,0.000152592547379986,-0.00600197353027945,0.0363170262764367,0.000152592547379986,-0.0124617247026989,-0.0419222591835281,-0.158543656727805,-0.0120141198970509,-0.130741294595172,0.0472426526688437,0.125614185003204,-0.312712993764051,-0.358755251726839,-0.00610370189519944,-0.0125125888851588,0.00167851802117985
2.25,2,0.0473952452162236,0.000152592547379986,-0.00607318338572344,0.0363170262764367,0.000152592547379986,-0.0123498235012869,-0.0509557379884233,-0.151300597145502,-0.0175481429486984,-0.139856156092003,0.0739666941333252,0.179774366486607,-0.30166529333374,-0.348968983021536,-0.00610370189519944,-0.0125125888851588,0.00167851802117985
2.28,2,0.0486363312682475,0.000152592547379986,-0.00620543026011943,0.0363984089683727,0.000152592547379986,-0.0124515518662069,-0.0577511927650787,-0.143609932757551,-0.0164494766075625,-0.153355510116886,0.0823796299122084,0.228878648233487,-0.298806726279489,-0.347331156346324,-0.0064699240089114,-0.0125125888851588,0.00167851802117985
2.31,2,0.0496332692444634,0.000152592547379986,-0.0065004425183874,0.0364696188238166,0.000152592547379986,-0.0123701691742709,-0.06564531388287,-0.141778822188991,-0.0160018718019145,-0.165654469435713,0.0832341481775363,0.184026612140263,-0.302306182032736,-0.351868241421756,-0.0065614795373394,-0.0125125888851588,0.00167851802117985
2.34,2,0.0504979603462834,0.000152592547379986,-0.00661234371979939,0.0364899644968006,0.000152592547379986,-0.0124413790297149,-0.0718710898159734,-0.148411511581774,-0.0177109083325704,-0.163558865118361,0.0634581540370902,0.0227057710501419,-0.309925636565244,-0.360332041383099,-0.0065614795373394,-0.0127262184514908,0.00167851802117985
2.37,2,0.0512202317372153,0.000152592547379986,-0.00661234371979939,0.0365306558427686,0.000152592547379986,-0.0127058727785068,-0.065075635039318,-0.151097140415662,-0.0255643381043936,-0.156183558661662,0.0689921770887376,-0.146804203416039,-0.310200303150527,-0.361359497868791,-0.0065614795373394,-0.0129093295083468,0.00167851802117985
2.4,2,0.0518000834172592,0.000152592547379986,-0.00679545477665537,0.0363882361318807,0.000152592547379986,-0.0125227617216508,-0.0612506485183264,-0.138726971241391,-0.0372834457431766,-0.101616463718579,0.111738436028118,-0.267576118249051,-0.311451562039043,-0.363149917091383,-0.00713115838089134,-0.0125125888851588,0.00167851802117985
2.43,2,0.0522985524053672,0.000152592547379986,-0.00701925717947935,0.0362458164209927,0.000152592547379986,-0.0123498235012869,-0.0690633869441817,-0.139825637582527,-0.0378938159326965,0.00993886125268309,0.171025727103488,-0.305642872402112,-0.314025289671519,-0.366201768038982,-0.00717184972685934,-0.0125125888851588,0.00167851802117985
2.46,2,0.0528377127394431,0.000152592547379986,-0.00708029419843135,0.0361644337290567,0.000152592547379986,-0.0124718975391909,-0.0822066916918444,-0.147516301970478,-0.0235704621519618,0.0608233893856624,0.21342610960214,-0.186630858282215,-0.314564450005595,-0.367290261543626,-0.00717184972685934,-0.0125125888851588,0.00167851802117985
2.49,2,0.0553707490259509,0.00599180069378745,-0.0076092816960153,0.0361644337290567,0.000152592547379986,-0.0126753542690308,-0.0932340464491714,-0.143406476027711,-0.00920641702525915,0.0478937142043316,0.222937711722159,0.0240791039765618,-0.302916552222256,-0.358216091392763,-0.00816878770307525,-0.0125125888851588,0.00167851802117985
2.52,2,0.0587379579048026,0.00825017039501124,-0.0087079480371512,0.0361644337290567,0.000152592547379986,-0.0124108605202389,-0.103203426211331,-0.128635517441328,-0.00619525742362743,0.0262357453128656,0.204433322143213,0.229499191259499,-0.30670084739728,-0.365367595446638,-0.00905382447787917,-0.0125125888851588,0.00167851802117985
2.55,2,0.0626646727907142,0.010803552354503,-0.00967436750389111,0.0361644337290567,0.000152592547379986,-0.0123905148472549,-0.109551276182338,-0.124688456882433,-0.00371308531957966,0.0127974283069348,0.163589383627837,0.378856776635029,-0.303689687795648,-0.36624245938495,-0.0102440463474431,-0.0125125888851588,0.00167851802117985
2.58,2,0.065421511480046,0.00831120741396323,-0.00997955259865108,0.0361644337290567,0.000152592547379986,-0.0124718975391909,-0.113742484817042,-0.126112653991312,0.000844345428835922,0.00988799707022309,0.0987172053183589,0.403525905128127,-0.296283862829473,-0.361613818781091,-0.0100609352905871,-0.0125125888851588,0.00167851802117985
2.61,2,0.0666219061861019,0.00258390046896776,-0.0100507624540951,0.0361237423830887,0.000152592547379986,-0.0124617247026989,-0.11398663289285,-0.117160557878353,0.00568661559902748,0.010976490574867,0.00859604683573921,0.256660664693136,-0.318633584602395,-0.385143589587085,-0.00956246630247912,-0.0125125888851588,0.00167851802117985
2.64,2,0.0669576097903379,0.000203456729839981,-0.00919624418876715,0.0360118411816767,0.000152592547379986,-0.0124922432121749,-0.0942106387524033,-0.11032441175573,0.00580868963693147,0.0136316008992787,-0.086530147200944,0.033041372926013,-0.36731060721661,-0.434207179987996,-0.00900296029541917,-0.0125125888851588,0.00167851802117985
2.67,2,0.0669169184443698,0.000152592547379986,-0.00893175043997518,0.0360118411816767,0.000152592547379986,-0.0124312061932229,-0.0636921292764061,-0.108859523300882,0.00279753003529974,0.0127974283069348,-0.137017934710735,-0.138167465234331,-0.383678701132237,-0.450544755394147,-0.00900296029541917,-0.0125125888851588,0.00167851802117985
2.7,2,0.065553758354442,-0.00297046825566373,-0.00913520716981516,0.0360118411816767,0.000152592547379986,-0.0125329345581428,-0.0392773216956084,-0.124647765536465,0.000803654082867926,0.0119530828780989,-0.131280454929248,-0.246294544307789,-0.39209163691112,-0.457553839737134,-0.0086570838546912,-0.0125125888851588,0.00167851802117985
2.73,2,0.0633767713451542,-0.00516780093793552,-0.00769066438795129,0.0360118411816767,0.000152592547379986,-0.0123091321553189,-0.0281278929003774,-0.130263171280048,-0.00147506129133986,0.010844243700471,-0.0890733563239438,-0.287453840754418,-0.398744671976887,-0.462029887793613,-0.00743634347565132,-0.0125125888851588,0.00167851802117985
2.76,2,0.0610573646249784,-0.0064902696818954,-0.00785342977182328,0.0360118411816767,0.000152592547379986,-0.0124006876837469,-0.0201930804366181,-0.123549099195329,-0.00676493626717938,0.0147404400769066,-0.0210781172114221,-0.24105553351441,-0.401938942635375,-0.462935270241401,-0.00734478794722332,-0.0125125888851588,0.00167851802117985
2.79,2,0.0583920814640746,-0.00749738049460331,-0.00702943001597135,0.0360118411816767,0.000152592547379986,-0.0124515518662069,-0.0144962920010987,-0.117648854029969,-0.00798567664621926,0.0134586626789148,0.0453810235908078,-0.137618132063763,-0.401114942879523,-0.45941546881517,-0.00669372641173538,-0.0125125888851588,0.00167851802117985
2.82,2,0.0567847732983388,-0.0033061718598997,-0.0065004425183874,0.0360118411816767,0.000152592547379986,-0.0125125888851588,-0.0145369833470667,-0.121595914588865,-0.00733461511073133,0.0126041444135868,0.098086489455855,-0.0483921831924395,-0.396425265256712,-0.453118483026622,-0.00685649179560737,-0.0125125888851588,0.00167851802117985
2.85,2,0.054160181483403,-0.00712098554439934,-0.00659199804681539,0.0358897671437727,0.000152592547379986,-0.0127363912879828,-0.0162053285317545,-0.14849289427371,-0.00521866512039552,0.0140995513779107,0.136326181829279,0.0179143650624104,-0.375031790114037,-0.429080070396029,-0.00624612160608743,-0.0125125888851588,0.00167851802117985
2.88,2,0.0527970213934751,-0.00146488845484787,-0.00605283771273944,0.0358592486342967,0.000152592547379986,-0.0123905148472549,-0.0168970814132104,-0.170140690328684,-0.00143436994537187,0.0138757489750867,0.20090334788049,0.054506057924131,-0.346975107069104,-0.399711091443627,-0.00667338073875139,-0.0125125888851588,0.00167851802117985
2.91,2,0.0508845281329793,-0.00137333292641987,-0.00708029419843135,0.0358592486342967,0.000152592547379986,-0.0124006876837469,-0.0174260689107944,-0.179540391247291,0.00202439446190781,0.00223802402823979,0.298623615222633,0.0440992461928159,-0.330942716757714,-0.381745862198757,-0.00682597328613137,-0.0125125888851588,0.00167851802117985
2.94,2,0.0474969735811436,-0.00660217088330739,-0.00589007232886746,0.0358592486342967,0.000152592547379986,-0.0123701691742709,-0.0201116977446821,-0.189021474857835,0.00137333292641987,-0.0120039470605589,0.416445407472966,0.0132348602760908,-0.309213538010804,-0.356618956063519,-0.00504572690003154,-0.0125125888851588,0.00167851802117985
2.97,2,0.0469578132470677,-0.000264493748791976,-0.00570696127201147,0.0358592486342967,0.000152592547379986,-0.0124820703756829,-0.0286161890519934,-0.190649128696554,-0.00350962858973968,-0.02127140110477,0.52450127669098,-0.00887071342102318,-0.280505793430382,-0.327402569658498,-0.00607318338572344,-0.0125125888851588,0.00167851802117985
3,2,0.0500808740501114,0.00798567664621926,-0.0065716523738314,0.0358287301248207,0.000152592547379986,-0.0124718975391909,-0.0564490696941028,-0.173111158584348,-0.00318409782199571,-0.0097760958688111,0.482426424960072,-0.0599892167933185,-0.249783827224545,-0.299742627236752,-0.00782291126234728,-0.0125125888851588,0.00167851802117985
3.03,2,0.0505996887112033,0.00100711081270791,-0.00748720765811131,0.0357066560869167,0.000152592547379986,-0.0129195023448388,-0.0459507024343598,-0.173233232622252,-0.00896226894945118,0.00595110934781945,0.482599363180436,-0.0950448113447473,-0.221371094902392,-0.271869055248675,-0.00692770165105136,-0.0125125888851588,0.00167851802117985
3.06,2,0.0511388490452793,0.000152592547379986,-0.00675476343068738,0.0357066560869167,0.000152592547379986,-0.0122175766268909,-0.0571001312295907,-0.167577135532701,-0.0075787631865393,0.0293994974618773,0.468367564928129,-0.115868607643869,-0.192337819554226,-0.24339528590757,-0.0065614795373394,-0.0125125888851588,0.00167851802117985
3.09,2,0.0516373180333872,0.000152592547379986,-0.00674459059419538,0.0357066560869167,0.000152592547379986,-0.0122480951363669,-0.102674438713747,-0.172500788394828,0.0054831588691875,0.0255948566138696,0.376954456211025,-0.115136163416445,-0.166641234575437,-0.21820734275338,-0.00700908434298736,-0.0125125888851588,0.00167851802117985
3.12,2,0.0496637877539394,-0.0065614795373394,-0.00670389924822738,0.0340891750846889,-0.0087282937101352,-0.0119022186956389,-0.300149540696432,-0.230282499669383,0.0365713471887366,-0.0715862503941974,-0.0147709585863826,-0.0840378022604043,-0.15647857091993,-0.206030457472457,-0.00585955381939146,-0.010640786970631,0.0232652770572019
3.15,4,0.0481887264625996,-0.000305185094759972,-0.00563575141656748,0.0176600441501104,-0.0703756828516495,0.00143436994537187,-0.0993377483443709,-0.190282906582842,0.0115461694184189,-0.0284432508316294,0.264290292062136,0.0419426048565121,-0.149693288979766,-0.197780287077446,-0.00590024516535946,0.00921658986175115,0.123549099195329
3.18,4,0.0577206742556027,0.0291044852036093,-0.0179245378989024,-0.00879950356557919,-0.0912503433332316,0.0173955504013184,0.011342712688579,-0.13001902320424,-0.0267850784834335,-0.0391450748212124,0.147455264951526,-0.104790388704082,-0.137150181585131,-0.194809818821782,-0.033051545762505,0.0404777164016643,0.116875718456577
3.21,4,0.0586158838668986,-0.00361135695465967,-0.0454725791192358,-0.0274768313648895,-0.0479852697327596,0.0403352966907763,0.00715150405387534,-0.202042705567593,0.021352783796706,-0.0183517970315663,0.127547023936684,-0.172439751375876,-0.128320159510076,-0.186905524867499,-0.0380260628070925,0.0401216671244443,0.179113132114628
3.24,4,0.0572323781039867,-0.00831120741396323,-0.0257067578152816,-0.0306914476963612,-0.00254320912299977,0.0262662638223416,-0.0279651275165054,-0.164891506698813,0.00462864060385957,-0.0297555467390973,0.0892056031983398,0.0287280902534054,-0.12518692587054,-0.182327748446099,-0.0284839421775974,0.0141402427238787,0.224707785271767
3.27,4,0.0552791934975229,-0.00895209611295918,-0.0302031515447452,-0.032115644805241,-0.00666320790225939,0.0167444888658305,-0.0234076967680898,-0.15235857214067,-0.0053814305042675,-0.0140385143589587,0.0566220079144668,0.0249031037324137,-0.123732210252185,-0.178909675384788,-0.0248115482039857,0.0134179713329468,0.239814447462386
3.3,4,0.0557064526301869,-0.00161748100222785,-0.00570696127201147,-0.0370901618498286,-0.0179347107353944,0.0138960946480707,-0.0450148014770959,-0.159031952879421,0.00373343099256366,-0.00572730694499547,0.054068625954975,-0.0532039348531551,-0.126031271299376,-0.181635995564643,0.00317392498550371,0.0124413790297149,0.275449893693859
3.33,4,0.0586362295398826,0.0097760958688111,-0.00702943001597135,-0.0424614195176041,-0.0161951556952625,0.0139266131575467,-0.0371613717052726,-0.154637287514878,0.00471002329579557,0.000681580044963937,0.117292804752749,-0.0404166793827123,-0.125888851588488,-0.184464044109419,-0.00799584948271126,0.0136621194087547,0.304249193802708
3.36,4,0.0589312417981506,0.00160730816573585,-0.00269580167037975,-0.0463983072400077,-0.0133060701315348,0.0142012797428307,-0.0273140659810175,-0.159357483647165,0.00361135695465967,0.00306202378409172,0.125929542934456,-0.0285042878505814,-0.121290729494105,-0.180160934273303,-0.00087486393831192,0.0136926379182307,0.334777876115197
3.39,4,0.0624815617338582,0.0122277494633829,-0.00449639372946359,-0.0494196396781315,-0.00808740501113926,0.0124617247026989,-0.0291451765495773,-0.157119459618926,0.00320444349497971,0.00158696249275185,0.157160150964894,-0.0142928352712587,-0.115431175674713,-0.177831354716636,-0.00811792352061525,0.0119632557145909,0.373780531225522
3.42,4,0.0641193884090701,0.00496434420809554,-0.00748720765811131,-0.0519323302916552,-0.00772118289742729,0.0120649840795109,-0.0161239458398185,-0.162409334594765,0.00198370311593982,0.000579851680043947,0.140293588061159,-0.0223904131188899,-0.105512660095014,-0.169581184321624,-0.00476088747825556,0.0122480951363669,0.428591774244413
3.45,4,0.0680461032949817,0.0121260210984629,-0.0043641468550676,-0.0519323302916552,0.000132246874395988,0.011322367015595,-0.0246284371471297,-0.159601631722973,0.00234992522965178,-0.00186162907803583,0.122226630451369,-0.0167953530482905,-0.0967741935483871,-0.164708395641957,-0.00769066438795129,0.00930814539017914,0.492812891018403
3.48,4,0.0697754854986216,0.00556454156112349,-0.00745668914863531,-0.0502639851069674,0.0075889360230313,0.00799584948271126,-0.0155949583422346,-0.160578224026205,0.00381481368449965,0.000925728120771915,0.0963164159062471,-0.0232347585477259,-0.0897244178594317,-0.159428693502609,-0.0054119490137435,0.0065716523738314,0.550879441714733
3.51,4,0.0698670410270496,0.000376394950203965,-0.000569678843551948,-0.0492772199672435,0.000549333170567949,0.00467950478631957,-0.0201116977446821,-0.159479557685069,0.00393688772240364,0.00784325693533128,0.0721152378917814,-0.00803654082867926,-0.0859706411938841,-0.15571560818303,-0.000488296151615955,0.00847397279783522,0.596321502324493
3.54,4,0.0707520778018535,0.0032756533504237,0.000498468988107954,-0.0474766279081596,0.00774152857041129,0.00565609708955148,-0.0201523890906501,-0.158909878841517,0.00352997426272368,0.00959298481195512,0.0698060040080976,-0.0167343160293385,-0.0856756289356161,-0.156346324045534,-0.00100711081270791,0.00594093651132745,0.626921394492426
3.57,4,0.0722983489486373,0.0054729860326955,-0.00490330718914355,-0.0451267026785078,0.0075584175135553,0.00465915911333557,-0.0191757967874182,-0.158340199997965,0.00283822138126774,0.0134077984964548,0.0549943540757469,-0.011118910285755,-0.0833460493789483,-0.155552842799158,-0.00505589973652353,0.00557471439761549,0.636799218726157
3.6,4,0.0720643737093214,0.000406913459679963,-0.000467950478631957,-0.0421358887498601,0.00850449130731122,0.00320444349497971,-0.0231635486922819,-0.159560940377005,0.00409965310627562,0.0156559953611866,0.0633259071626942,-0.00602231920326345,-0.0847397279783522,-0.156722718995738,-0.000488296151615955,0.0043336283455916,0.637989440595721
3.63,4,0.0729901018300933,0.0032959990234077,0.000386567786695964,-0.0387686798710084,0.0128381196529028,0.00332651753288369,-0.0196234015930662,-0.157729829808445,0.00308236945707572,0.0172124393444624,0.0781070385855688,-0.00614439324116743,-0.0848109378337962,-0.157740002644937,-0.00100711081270791,0.00332651753288369,0.635802280749942
3.66,4,0.0748212123986531,0.0054831588691875,-0.00526952930285552,-0.0354014709921567,0.010610268461155,0.0022075055187638,-0.0175481429486984,-0.158421582689901,0.00173955504013184,0.0130212307097588,0.0815861486658325,-0.00446587521998759,-0.0817692597226885,-0.156509089429406,-0.00505589973652353,0.00195318460646382,0.643950722780033
3.69,4,0.076499730419833,0.00568661559902748,-0.00173955504013184,-0.0309050772626932,0.0155339213232826,0.00152592547379986,-0.0202337717825861,-0.159642323068941,0.00145471561835587,0.00933866389965514,0.0934578488519954,0.00395723339538764,-0.0775678782514929,-0.153945534633422,-0.00335703604235969,0.000366222113711966,0.667785678680787
3.72,4,0.0813318277535325,0.0143945636361787,-0.00747703482161931,-0.0255541652679016,0.0197556484674622,-0.000986765139723909,-0.0188909573656423,-0.159520249031037,0.00149540696432386,0.00239061657561978,0.129123813592944,-0.00296029541917173,-0.0710165715506455,-0.15225684377575,-0.00998972543514308,-0.0011190120141199,0.687988931953897
3.75,4,0.0884731589709159,0.0227362895596179,-0.0126244900865708,-0.0186366364533423,0.0250048320973337,-0.00276701152582375,-0.0180771304462823,-0.159886471144749,0.00243130792158778,-0.00409965310627562,0.146936450290434,-0.00549333170567949,-0.0626951913001902,-0.151097140415662,-0.0158899706005025,-0.00504572690003154,0.686605426190985
3.78,4,0.098035625273395,0.0295317443362733,-0.0198980681783502,-0.0101524908190151,0.0285144606870734,-0.00492365286212755,-0.0124617247026989,-0.158258817306029,0.00564592425305948,-0.00191249326049582,0.160944446139917,-0.00692770165105136,-0.0532853175450911,-0.15123956012655,-0.022024191005178,-0.00771101006093529,0.694906460768456
3.81,4,0.108869696137374,0.0347809279661448,-0.0228583635975219,-0.00240078941211178,0.0258695231991536,-0.00608335622221544,-0.0184840439059623,-0.161636199021373,0.00552385021515549,0.0117191076387829,0.17144281339966,0.00333669036937569,-0.043651641387168,-0.152439954832606,-0.0246386099836217,-0.00822982472202724,0.69670705282754
3.84,4,0.122409741508225,0.0423291726432081,-0.0305286823124892,0.00572730694499547,0.0292062135685293,-0.00785342977182328,-0.00928779971719515,-0.157811212500381,0.00157678965625985,0.0254422640664897,0.192887152724794,0.000681580044963937,-0.032247891679637,-0.154555904822942,-0.0318816695659251,-0.010773033845027,0.692393770154932
3.87,4,0.136356700338755,0.0450656656595559,-0.032258064516129,0.0159916989654225,0.0357066560869167,-0.010844243700471,-0.0146590573849707,-0.160659606718141,0.00296029541917173,0.0246793013295897,0.210872727642649,0.00368256681010366,-0.0205287840408541,-0.156865138706626,-0.032990508743553,-0.0148930326242866,0.69207841222368
3.9,4,0.155532497126174,0.0620136112552263,-0.0409354940438042,0.0273852758364615,0.0395621611173844,-0.0140079958494827,-0.000498468988107954,-0.162409334594765,-0.000579851680043947,0.0226243883582059,0.253832616148361,-0.00404878892381563,-0.00644957833592741,-0.161921038443149,-0.0443230485956399,-0.0184738710694703,0.690054017761773
3.93,4,0.174820195115004,0.0629495122124902,-0.0493077384767195,0.0409253212073122,0.0486668497777235,-0.0184738710694703,0.00263476465142776,-0.158909878841517,-0.000783308409883928,0.0140588600319427,0.232734153263955,-0.00381481368449965,0.00844345428835922,-0.166152938423821,-0.0482497634815516,-0.0235195979695018,0.687154759361553
3.96,4,0.193660288298186,0.0618813643808303,-0.0464593442589597,0.0537430951872311,0.0414848272143722,-0.0227261167231259,-0.00342824589780368,-0.160171310566525,0.00125125888851588,0.00661234371979939,0.243049409466842,-0.00445570238349559,0.0225023143203019,-0.17093417157506,-0.0466729738252917,-0.0244961902727337,0.691356140832748
3.99,4,0.214606158635212,0.0696534114607176,-0.0511998860642313,0.0677002268542538,0.0498977629932554,-0.0257271034882656,0.00259407330545976,-0.159357483647165,0.0021871598457798,-0.0032553076774397,0.262693156732892,-0.00964384899441511,0.0375275938189845,-0.176824243903928,-0.0519526759646392,-0.0290027568386893,0.691640980254524
4.02,4,0.236813460697246,0.0739972126428012,-0.0551062552771589,0.0835393332722963,0.054180527156387,-0.0305083366395052,0.00157678965625985,-0.163019704784285,0.00381481368449965,0.0152694275744906,0.288613544114505,-0.00661234371979939,0.053946551917071,-0.182622760704367,-0.0549027985473189,-0.0339365825373089,0.690898363190608
4.05,4,0.262906786299224,0.0877610604164759,-0.0646280302336701,0.0995615507471948,0.0559200821965189,-0.0344147058524328,0.00971505884985911,-0.156509089429406,0.00401827041433963,0.0282906582842494,0.338735109510585,-0.0183721427045503,0.0732037313964253,-0.189489425336467,-0.065675832392346,-0.0370494705038606,0.687663401186153
4.08,4,0.289112013102613,0.087343974120304,-0.0658487706127099,0.118106631672109,0.064770449944558,-0.0402132226528723,0.00589007232886746,-0.161921038443149,0.00161748100222785,0.033163446963917,0.34995574816126,0.000295012258267973,0.0936511327453434,-0.195226905117954,-0.06564531388287,-0.043387147638376,0.690104881944233
4.11,4,0.317738374991099,0.0960417493209632,-0.0714743491927854,0.136275317646819,0.0585853653574226,-0.0441806288847519,0.00955229346598712,-0.158665730765709,0.00393688772240364,0.0407727286599322,0.358439893795587,-0.0157068595436466,0.115197200435397,-0.202297026479893,-0.0719422996714174,-0.0457675913775038,0.684652241584521
4.14,4,0.347880489516892,0.101433352661723,-0.076214890998057,0.152806176946318,0.0566220079144668,-0.0459608752708518,0.021312092450738,-0.159805088452813,0.0022278511917478,0.0232042400382499,0.354157129632455,-0.0247098198390657,0.136529638559119,-0.211076184372489,-0.0767337056591489,-0.0469171219010997,0.681590217800429
4.17,4,0.376222011983601,0.0958891567735832,-0.0748619037446211,0.170313628549048,0.0580563778598387,-0.0498367259743034,0.0192368338063702,-0.167414370148829,0.00145471561835587,0.0196030559200822,0.358663696198411,-0.0263069551683096,0.157668792789493,-0.2183090711183,-0.0741701508631652,-0.0511795403912473,0.678273873104038
4.2,4,0.406608274585203,0.104159672841578,-0.0780866929125848,0.186793623666087,0.0555843785922829,-0.053875342061627,0.0191147597684662,-0.153864151941486,0.00133264158045188,0.0290332753481653,0.414817753634246,-0.0280668558814254,0.180964588356171,-0.225430056662699,-0.0785241248817408,-0.0530411694692831,0.672912788272754
4.23,4,0.438866339101332,0.11052786848557,-0.0833257037059643,0.207017222612181,0.0717286701050854,-0.0616575619780063,0.0336008789330729,-0.148167363505966,-0.000498468988107954,0.0342621133050528,0.448316904202399,-0.0162358470412305,0.207007049775689,-0.231625314086327,-0.0839259010589923,-0.0614846237576423,0.662455112358979
4.26,4,0.470880255541653,0.108167770419426,-0.0829086174097924,0.230414746543779,0.0814539017914365,-0.0697958311716056,0.0336008789330729,-0.160740989410077,0.000233975239315978,0.0344147058524328,0.466373688975697,-0.0314442375967691,0.23434146142969,-0.236304818872646,-0.0825932594785404,-0.0701315347758416,0.652801090528072
4.29,4,0.505081331827753,0.116387422304961,-0.0890123193049918,0.255073702200385,0.0834376049073763,-0.0745567186498611,0.032339447208065,-0.155898719239886,0.0010478021586759,0.0394299142429884,0.504257332071902,-0.0291350037130853,0.263720613218584,-0.241096224860378,-0.0888190354116438,-0.0749839777825251,0.643777784559669
4.32,4,0.542435987426374,0.127038382112084,-0.0942513300983713,0.280149744153162,0.0848211106702882,-0.0796533097323527,0.0377513962218085,-0.156061484623758,0.00772118289742729,0.0276294239122695,0.545040233568326,-0.0809656056398205,0.295164850815353,-0.247057507044689,-0.0955941445153152,-0.0805892106896166,0.623442284412163
4.35,4,0.579546494949187,0.126366974903612,-0.0989003163752149,0.304574724570452,0.0807214575640126,-0.0830815556301564,0.043326110619424,-0.169286172063356,0.00739565212968332,0.0402233954893643,0.579749951679027,-0.102521846166367,0.328948840805282,-0.250363678904589,-0.0965503911455631,-0.0838343455305643,0.602618488113041
4.38,4,0.622323272398043,0.144403414003927,-0.107699819940794,0.327127903073214,0.0733563239438053,-0.0835393332722963,0.0500401827041434,-0.159479557685069,-0.00131229590746788,0.0359406313262327,0.628528702658162,-0.128421887874996,0.365448978138574,-0.256640319020152,-0.109215572578102,-0.0853500981678721,0.569404176966664
4.41,4,0.663360494806767,0.139255958738975,-0.108269498784346,0.34802290922778,0.0720643737093214,-0.0891750846888638,0.0742515335551012,-0.13368124434136,-0.00444552954700359,0.0342417676320688,0.616270434685303,-0.136427910194199,0.402773115227719,-0.260322885830256,-0.108666239407534,-0.087343974120304,0.542588579973754
4.44,4,0.704652038127791,0.141656748151087,-0.108829004791406,0.37300739565213,0.0884426404614399,-0.0969471317687511,0.0609454634235664,-0.149428795230974,-0.0043234555090996,0.043834752444024,0.667958616901151,-0.131819615263324,0.441073844620095,-0.263334045431888,-0.108462782677694,-0.098005106763919,0.506434319081189
4.47,4,0.746920173752047,0.145074821212399,-0.111534979298278,0.399599190242215,0.0883307392600279,-0.102949105299031,0.0812097537156285,-0.139215267393007,-0.00253303628650777,0.0289620654927213,0.688172043010753,-0.156305632699566,0.482050030009868,-0.264605649993388,-0.111372213914406,-0.103671376689962,0.456099124118778
4.5,4,0.790236111534979,0.149571214941862,-0.114505447553941,0.424827824742373,0.0851059500920642,-0.106011129083122,0.075635039318013,-0.135634428947824,-0.00114953052359589,0.0361542608925647,0.717205318358918,-0.168869085767184,0.52424695577868,-0.265745007680492,-0.114800459812209,-0.106224758649454,0.417371135593738
4.53,4,0.832687358216091,0.146153141880551,-0.114627521591845,0.450219224626403,0.0855942462436801,-0.111158584348074,0.086987924843084,-0.138930427971231,-0.00936918240913114,0.0165308592994985,0.717174799849442,-0.144057537563199,0.56734926399528,-0.265104118981496,-0.113762830490026,-0.111473942279326,0.376995147556993
4.56,4,0.878353221228675,0.158055360576189,-0.119825841039257,0.474857834610024,0.0794905443484807,-0.110354930265206,0.0920743430890835,-0.167536444186733,-0.00957263913897112,0.0642923266294341,0.779310485142572,-0.119459618925545,0.612201300088504,-0.26593829157384,-0.120507421084221,-0.114658040101321,0.337432986439609
4.59,4,0.926725058748131,0.166702271594389,-0.12961210974456,0.492812891018403,0.053875342061627,-0.109368165125482,0.10472935168513,-0.145970030823695,-0.00802636799218726,0.0505284788557594,0.792820012003947,-0.097771131524603,0.659484644103315,-0.266986093732515,-0.12915433210242,-0.108829004791406,0.301431318094424
4.62,4,0.977619759717602,0.174820195115004,-0.132796207566556,0.507817824844101,0.0491754916023235,-0.106529943744214,0.097608366140731,-0.136773786634927,-0.0124617247026989,0.04325490076398,0.810215562405265,-0.15068005411949,0.707591987873979,-0.269865006459751,-0.134057639291564,-0.10935799228899,0.276863917966247
4.65,4,1.03052868231249,0.181859797967467,-0.140995513779107,0.513962218085269,0.00942004659159113,-0.097689748832667,0.115919471826329,-0.183772291227963,-0.0065614795373394,0.11357971943317,0.827611112806584,-0.116194138411613,0.756645405438398,-0.273669647307759,-0.140049439985351,-0.098096662292347,0.254432813501389
4.68,4,1.08802555416527,0.197637867366558,-0.149998474074526,0.514999847407453,0.00160730816573585,-0.0944853053376873,0.11123996704001,-0.10727256080813,-0.0114444410534989,0.0403149510177923,0.827712841171504,-0.105726289661346,0.807092501602222,-0.280668558814254,-0.152582374543494,-0.0938749351481674,0.206111840164393
4.71,4,1.13704845322021,0.168004394665365,-0.137099317402671,0.514114810632649,-0.00120039470605589,-0.0905077262693157,0.136061688080487,-0.0687785475224057,-0.0320342621133051,0.0679443749300617,0.688100833155309,-0.0605487228003784,0.852351451155126,-0.284442681152786,-0.134871466210924,-0.0916369111199276,0.128259122491124
4.74,4,1.18072044028036,0.151829584643086,-0.0816471856847845,0.514470859909869,0.0021769870092878,-0.0727052624083173,0.164301482182277,-0.11032441175573,-0.0303659169286172,0.149723807489242,0.587766146834722,0.0672017578661458,0.890214748578346,-0.290281889299193,-0.0623391420229703,-0.0511998860642313,0.0798059022797327
4.77,4,1.24536881618702,0.225012970366527,-0.0188197475101983,0.516190069277016,0.00579851680043947,-0.0247606840215257,0.121575568915881,-0.181330810469883,-0.0225531785027619,0.202256335133925,0.558325958026877,0.131026134016948,0.925026195053967,-0.320098473057243,-0.0320444349497971,-0.0186264636168503,0.0285449791965494
4.8,4,1.29414756716615,0.173558763389996,-0.0379345072786645,0.510228787092705,-0.022075055187638,-0.0162561927142145,-0.054251737011831,-0.0520137129835912,-0.0268664611753695,0.28659932248909,-0.0161646371857865,0.252123579617705,0.943550930305897,-0.350342315947956,-0.0388500625629444,-0.0065106153548794,0.00725323241879533
4.83,4,1.29730114647867,0.0251269061352377,-0.0184433525599943,0.503474023662018,-0.0165918963184505,-0.00899278745892717,-0.0472935168513037,-0.0741904965361492,-0.00680562761314737,0.291197444583473,-0.75894446648559,0.222917366049176,0.917335530666016,-0.379762159082817,-0.0098167872147791,-0.00507624540950753,0.00278735719880774
4.86,4,1.27542954802087,-0.0551672922961109,-0.0189519943845943,0.499221778008362,-0.011190120141199,-0.0458794925789158,0.138055564032919,-0.230241808323415,-0.0021261228268278,0.21871598457798,-0.97654143904945,0.14783165990173,0.860876288135421,-0.414298938973154,-0.0510574663533433,-0.129449344360688,0.00187180191452783
4.89,4,1.19307026378165,-0.264595477156896,-0.0768761253700369,0.426933601896217,-0.360332041383099,-0.114973398032573,-0.17897071240374,-0.0188095746737063,-0.0224717958108259,0.264554785810928,-1.49444054485712,-0.0264493748791976,0.792738629312011,-0.400087486393831,-0.075665557827489,-0.13459679962564,0.00167851802117985
4.92,4,1.07975503809727,-0.379619739371929,-0.0354523351746167,0.27851191747795,-0.507166763308613,0.0136926379182307,-0.00676493626717938,-0.174453973001292,-0.0101423179825231,0.200557471439762,-2.17359945473596,-0.0228787092705059,0.67345194860683,-0.406058941414635,-0.0343841873429568,0.0253303628650777,0.00167851802117985
4.95,4,0.962818282621743,-0.398500523901079,-0.0281177200638854,0.160466322824793,-0.367503891109958,0.0320546077862891,0.213619393495488,-0.156753237505214,-0.0411898149561042,0.195033621224606,-1.56712546159246,0.0316476943266091,0.56572161015656,-0.396872870062359,-0.0169581184321624,0.0456963815220598,0.00167851802117985
4.98,4,0.877844579404075,-0.296405936867377,-0.0248827580594297,0.0853094068219042,-0.2203436384167,0.032766706340729,0.0519933673106072,-0.187678660440891,-0.0206813765882341,0.187231055635243,-1.70717490157781,0.0565304523860388,0.464634133935565,-0.412976470229194,-0.0272835474715415,0.0375275938189845,0.00167851802117985
5.01,4,0.791192358165227,-0.295805739514349,-0.0249743135878577,0.0566626992604348,-0.0630614134139022,0.0097557501958271,-0.00289925840021973,-0.116875718456577,-0.0225124871567939,0.207149469486577,-1.66597491378521,0.149530523595894,0.365652434868414,-0.425316120893989,-0.021851252784814,-0.00273649301634775,0.00167851802117985
5.04,4,0.692342905972472,-0.322499262469354,-0.0151575263730786,0.0524918362987152,-0.00662251655629139,-0.00940987375509914,-0.0382600380464085,-0.123142185735649,-0.0139266131575467,0.19571520126957,-1.97581916765852,-0.0191859696239102,0.250058493809829,-0.440860215053763,-0.00594093651132745,-0.0243639433983378,0.00167851802117985
5.07,4,0.583259580268766,-0.332366913866593,0.00458794925789158,0.0520747500025432,-0.000478123315123956,-0.0198777225053662,0.103386537268186,-0.268776512955107,-0.00896226894945118,0.116946928312021,-1.90491449730928,-0.0815454573198645,0.118462680949329,-0.464552751243629,0.00628681295205542,-0.0279854731894894,0.00167851802117985
5.1,4,0.477492599261452,-0.345235552028972,0.0175786614581744,0.0470188502660197,-0.0223700674459059,-0.021952981149734,0.0376700135298725,-0.210506505528937,-0.00839259010589923,0.0739158299508652,-1.79144667907753,-0.0993479211808629,0.0118717001861629,-0.465458133691417,0.0207729321166621,-0.0189011302021343,0.00167851802117985
5.13,4,0.380342010762861,-0.321339559109266,0.0238756472467218,0.0375784580014445,-0.0335398419141209,-0.0169581184321624,0.127190974659464,-0.283018484043906,-0.00578834396394747,0.0662149927264219,-1.43189794610431,-0.337280393892229,-0.0849330118717002,-0.465152948596657,0.0257474491612496,-0.00852483698029522,0.00167851802117985
5.16,4,0.293933937599821,-0.287728507339702,0.0277514979501734,0.0291248308765933,-0.0249437950783817,-0.010773033845027,0.118930631427961,-0.253924171676789,-0.0136824650817387,0.0677307453637298,-1.08740501113926,-0.409985656300546,-0.161036001668345,-0.454878383739738,0.0286670532344534,-0.00617491175064343,0.00167851802117985
5.19,4,0.224158452101199,-0.233486943164363,0.0257169306517736,0.0239366842656738,-0.0145675018565427,-0.00906399731437117,0.105258339182714,-0.228003784295175,-0.0120955025889869,0.0456048259936318,-0.643482772301401,-0.256904812768944,-0.212398653116448,-0.43646554968922,0.0254626097394737,-0.00703960285246335,0.00167851802117985
5.22,4,0.176295256406344,-0.162236396374401,0.0188299203466903,0.021362956633198,-0.00577817112745547,-0.00791446679077527,0.0624103518784143,-0.194677571947386,-0.0065614795373394,0.0453911964272998,-0.335561184525081,-0.172175257627084,-0.240974150822474,-0.417188024536882,0.0166020691549425,-0.00814844203009125,0.00167851802117985
5.25,4,0.14951017792291,-0.0931017995747754,0.00906399731437117,0.021362956633198,0.000152592547379986,-0.00949125644703513,0.0314035462508011,-0.161351359599597,-0.00379446801151565,0.00102745648569191,-0.0723186946216214,0.0503962319813634,-0.251472518082217,-0.400891140476699,0.00500503555406354,-0.010986663411359,0.00160730816573585
5.28,4,0.134108503474024,-0.054241564175339,0.000386567786695964,0.0208746604815821,-0.00331634469639169,-0.010447503077283,0.00511693675547553,-0.139784946236559,-0.00489313435265155,-0.0483820103559476,0.0606301054923144,0.162185532191941,-0.250953703421125,-0.384970651366721,-0.00154627114678386,-0.010661132643615,0.00158696249275185
5.31,4,0.123315123956013,-0.0376700135298725,-0.00282804854477574,0.0190740684224982,-0.00421155430768761,-0.00961333048493912,-0.00253303628650777,-0.131280454929248,-0.00884019491154719,-0.0748720765811131,0.103722240872422,0.156336151209042,-0.246172470269885,-0.369426557206946,-0.00409965310627562,-0.00722271390931934,0.00167851802117985
5.34,4,0.118818730226549,-0.0170598467970824,-0.00568661559902748,0.0192571794793542,0.000152592547379986,-0.00921658986175115,-0.00371308531957966,-0.139255958738975,-0.011363058361563,-0.0804976551611886,0.205348877427493,0.107201350952686,-0.236671040986358,-0.355377870011495,-0.00772118289742729,-0.0100711081270791,0.00167851802117985
5.37,4,0.117933693451745,-0.00386567786695964,-0.00851466414380322,0.0193995991902422,0.000152592547379986,-0.00961333048493912,-0.0165308592994985,-0.140436007772047,-0.00912503433332316,-0.0861944435967081,0.26110619424014,0.0183111056855983,-0.2165288247322,-0.334381135492009,-0.0103254290393791,-0.0100711081270791,0.00167851802117985
5.4,4,0.118289742728965,-0.00076296273689993,-0.010996836247851,0.0195318460646382,0.000152592547379986,-0.0098167872147791,-0.0152694275744906,-0.141290526037375,-0.00985747856074709,-0.105431277403078,0.332794172999257,-0.0459303567613758,-0.184484389782403,-0.30268257698294,-0.0114444410534989,-0.0100711081270791,0.00167851802117985
5.43,4,0.118035421816665,-0.00723288674581133,-0.010569577115187,0.0196234015930662,0.000152592547379986,-0.0098269600512711,-0.0277616707866654,-0.126275419375184,-0.0120141198970509,-0.135227515488144,0.381806899217709,-0.0674560787784458,-0.156712546159246,-0.274707276629943,-0.00983713288776309,-0.0100711081270791,0.00167851802117985
5.46,4,0.121677297280801,-0.000386567786695964,-0.010793379518011,0.0196844386120182,0.000152592547379986,-0.0097659230323191,-0.0537227495142471,-0.108371227149266,-0.0203151544745221,-0.169235307880896,0.209255246640421,-0.0899482202622557,-0.139144057537563,-0.260760317799412,-0.0116682434563229,-0.0100711081270791,0.00167851802117985
5.49,4,0.123132012899157,-0.00617491175064343,-0.0114749595629749,0.0196844386120182,0.000152592547379986,-0.0100304167811111,-0.0332550024923449,-0.121392457859025,-0.032400484227017,-0.176396984771264,0.200455743074842,-0.0165308592994985,-0.127384258552812,-0.250414543087049,-0.010935799228899,-0.0100711081270791,0.00167851802117985
5.52,4,0.125024160486669,-0.0021973326822718,-0.010762861008535,0.0196844386120182,0.000152592547379986,-0.00999989827163508,-0.0418408764915922,-0.127211320332448,-0.0382193467004405,-0.156997385581022,0.158970915860469,0.0862249621061841,-0.117608162684001,-0.242510249132766,-0.0115156509089429,-0.0100711081270791,0.00167851802117985
5.55,4,0.12737408571632,0.000101728364919991,-0.0119530828780989,0.0196640929390342,0.000152592547379986,-0.0100100711081271,-0.0420850245674001,-0.138523514511551,-0.0393587043875444,-0.118452508112837,0.115563422549109,0.144851018809575,-0.126112653991312,-0.253415529852189,-0.0125125888851588,-0.0100711081270791,0.00167851802117985
5.58,4,0.129184850611896,0.000152592547379986,-0.0122582679728589,0.0195216732281462,0.000152592547379986,-0.00997955259865108,-0.0402132226528723,-0.156549780775374,-0.0317087313455611,-0.0751365703299051,0.0818811609241005,0.130507319355856,-0.136417737357707,-0.265541550950652,-0.0125431073946348,-0.0100711081270791,0.00167851802117985
5.61,4,0.12951038137964,-0.00297046825566373,-0.0127465641244748,0.0193792535172582,0.000152592547379986,-0.0100812809635711,-0.0378938159326965,-0.173802911465804,-0.021413820815658,-0.0537125766777551,0.0563778598386588,0.0385855688141524,-0.135410626545,-0.264839625232704,-0.0126143172500788,-0.0100711081270791,0.00167851802117985
5.64,4,0.127811517685476,-0.00835189875993123,-0.0115868607643869,0.0192266609698782,0.000152592547379986,-0.0101423179825231,-0.0338246813358969,-0.179296243171483,-0.0136824650817387,-0.0558386995045829,0.0287077445804214,-0.0932747377951394,-0.132928454440952,-0.260668762270984,-0.010823898027487,-0.0100711081270791,0.00167851802117985
5.67,4,0.12528865423546,-0.010803552354503,-0.010671305480107,0.0190842412589902,0.000152592547379986,-0.0100405896176031,-0.0250760419527777,-0.176854762413404,-0.0146997487309386,-0.0614439324116743,0.00205491297138381,-0.193762016663106,-0.132043417666148,-0.257209997863704,-0.0100100711081271,-0.0100711081270791,0.00167851802117985
5.7,4,0.122480951363669,-0.00943021942808313,-0.0100711081270791,0.0189316487116103,0.000152592547379986,-0.00991851557969909,-0.0211289813938821,-0.175145725882748,-0.0174667602567624,-0.0588498591062146,-0.0391145563117364,-0.223171686961475,-0.133162429680268,-0.255582344024984,-0.00999989827163508,-0.0097964415417951,0.00167851802117985
5.73,4,0.118950977100945,-0.00678528194016338,-0.0101626636555071,0.0187892290007223,0.000152592547379986,-0.0098167872147791,-0.00403861608732363,-0.171564887437564,-0.0210475987019461,-0.0378124332407605,-0.0621763766390983,-0.205247149062573,-0.135369935199032,-0.254280220954009,-0.010355947548855,-0.00961333048493912,0.00167851802117985
5.76,4,0.11123996704001,-0.0156966867071546,-0.00889105909400718,0.0187281919817703,0.000152592547379986,-0.00971505884985911,0.0164291309345785,-0.167332987456893,-0.0210882900479141,-0.00601214636677145,0.112470880255542,-0.15047659738965,-0.132368948433892,-0.243527532781966,-0.00788394828129927,-0.00961333048493912,0.00167851802117985
5.79,4,0.100985747856075,-0.0246487828201137,-0.00710063987141535,0.0175379701122064,-0.00613422040467544,-0.00905382447787917,-0.186498611407819,-0.285622730185858,-0.0352488784447768,-0.0148930326242866,0.0129907122002828,-0.0334279407127089,-0.1285439619129,-0.229427981404055,-0.00525935646636352,-0.00807723217464726,0.0371817173782566
5.82,4,0.0902737510299997,-0.0309254229356772,-0.00239061657561978,0.00409965310627562,-0.0578427482935067,0.00517797377442752,-0.101819920448419,-0.280170089826146,0.0297352010661133,0.0065004425183874,0.338063702302113,-0.108513646860154,-0.117618335520493,-0.207810703858557,-0.00200404878892382,0.0148218227688426,0.275378683838415
5.85,4,0.10432243822545,0.0361644337290567,-0.0101524908190151,-0.0154525386313466,-0.0627562283191422,0.0175379701122064,0.0186671549628183,-0.144057537563199,-0.0465203812779117,-0.128971221045564,0.254412467828405,-0.010996836247851,-0.100466933194983,-0.204718161564989,-0.0232245857112339,0.0278328806421094,0.264859970905688
5.88,4,0.124973296304209,0.0563778598386588,-0.0450860113325399,-0.0249437950783817,-0.0190537227495142,0.0194402905362102,0.0229397462894579,-0.185359253720715,0.011220638650675,-0.0697246213161616,0.326883754997406,-0.0956450086977752,-0.0812402722251045,-0.206172877183345,-0.043956826481928,0.0143640451267027,0.364228237759535
5.91,4,0.143233537807347,0.0523799350973032,-0.0386669515060884,-0.021719005910418,0.0172938220363984,0.00134281441694388,-0.0152694275744906,-0.169774468214972,0.00483209733369956,-0.0347809279661448,0.258329009877824,-0.0119632557145909,-0.06534012878811,-0.208482111067029,-0.0396028524633524,-0.00174972787662384,0.472080650247709
5.94,4,0.156712546159246,0.0380565813165685,-0.0338958911913409,-0.0122480951363669,0.0359711498357087,-0.00372325815607166,0.0151676992095706,-0.156671854813278,0.00153609831029186,-0.00490330718914355,0.212602109846288,-0.0178431552069664,-0.0503453677989034,-0.207007049775689,-0.0303760897651092,-0.0086570838546912,0.531988484349091
5.97,4,0.167078666544593,0.0291960407320373,-0.0250150049338257,0.000447604805647959,0.0414339630319122,-0.00810775068412325,-0.0148625141148106,-0.161554816329437,-0.00289925840021973,0.0100711081270791,0.191066214992726,-0.00417086296171962,-0.0387585070345164,-0.205755790887173,-0.0231737215287739,-0.0150557980081586,0.54526403597115
6,4,0.177109083325704,0.0295113986632893,-0.022217474898526,0.00901313313191117,0.0249844864243497,-0.010966317738375,-0.00936918240913114,-0.158787804803613,-0.0032654805139317,0.0162155013682465,0.17449466434726,-0.0135502182073428,-0.0277718436231574,-0.204819889929909,-0.0225633513392539,-0.010528885769219,0.548580380667542
6.03,4,0.185572883287047,0.0253507085380617,-0.022075055187638,0.0167037975198625,0.0293588061159093,-0.010671305480107,0.00556454156112349,-0.157363607694734,-0.00477106031474756,0.0141504155603707,0.166651407411929,-0.0157170323801386,-0.0174972787662384,-0.202968433688365,-0.0210272530289621,-0.0123803420107629,0.549302652058474
6.06,4,0.19073051138849,0.0155440941597746,-0.0153915016123946,0.0274666585283975,0.0367748039185766,-0.0132552059490748,-0.00745668914863531,-0.162124495172989,-0.00574765261797947,0.0126753542690308,0.175471256650492,-0.00779239275287128,-0.0075787631865393,-0.198217719046602,-0.0119836013875749,-0.0172938220363984,0.570279040904975
6.09,4,0.201503545233517,0.0341502121036409,-0.0183416241950743,0.0392162846766564,0.0421664072593361,-0.0171412294890184,-0.00737530645669932,-0.162409334594765,-0.00363170262764367,0.0156559953611866,0.247617013051749,-0.0152185633920306,0.00505589973652353,-0.196203497421186,-0.0241299681590218,-0.0211188085573901,0.603249203975544
6.12,4,0.215440331227556,0.0449029002756839,-0.0311797438479771,0.054231391338847,0.053997416099531,-0.0223395489364299,0.00405896176030763,-0.157363607694734,-0.0054628131962035,0.0258491775261696,0.278481398968474,-0.00318409782199571,0.0210475987019461,-0.194168930122786,-0.0335093234046449,-0.0279651275165054,0.621234778893399
6.15,4,0.232490005188147,0.0557267983031709,-0.0392366303496404,0.0719728181808934,0.0614337595751824,-0.0297962380850653,-0.000986765139723909,-0.162694174016541,-0.00611387473169144,0.021546067690054,0.32547990356151,-0.000528987497583951,0.0392061118401644,-0.19307026378165,-0.0410372224087242,-0.0343333231604968,0.638996551408429
6.18,4,0.253181554612873,0.0684733624276457,-0.0491958372753075,0.0894294056011638,0.0575986002176987,-0.0344147058524328,0.0032451348409477,-0.157973977884253,-0.00521866512039552,0.0239061657561978,0.348460341196936,-0.00420138147119561,0.0595721304971465,-0.193385621712902,-0.0508743552964873,-0.0363170262764367,0.645761487675609
6.21,4,0.273059277118239,0.064923042491938,-0.0506200343841873,0.108472955514186,0.0673848689230018,-0.0388093712169764,0.0135807367168188,-0.160700298064109,-0.00794498530025127,0.022105573697114,0.345439008758812,0.00460829493087558,0.0803145441043326,-0.19251075777459,-0.0497756889553514,-0.0426241849014761,0.646514277576017
6.24,4,0.296456801049837,0.076499730419833,-0.0562659586372468,0.128269295327616,0.06559444970041,-0.0444858139795119,0.00584938098289946,-0.162002421135085,-0.00493382569861955,0.00832138025045523,0.390138452304656,-0.00559506007059949,0.102491327656891,-0.193721325317138,-0.0570085757011628,-0.0459710481073438,0.646727907142349
6.27,4,0.32252978097883,0.0857264931180761,-0.0643228451389101,0.147506129133986,0.064973906674398,-0.0483820103559476,0.0255846837773776,-0.163630074973805,-0.0065614795373394,-0.00317392498550371,0.405448571225115,-0.00274666585283975,0.1262550737022,-0.19602038636433,-0.0642719809564501,-0.0496129235714794,0.648233486943164
6.3,4,0.351451155125584,0.0958484654276152,-0.0717083244321014,0.168828394421216,0.0727052624083173,-0.054414502395703,0.0235501164789778,-0.160171310566525,-0.00371308531957966,0.00422172714417961,0.427340515355897,-0.0131941689301228,0.15144301685639,-0.19978433586637,-0.0723186946216214,-0.0552995391705069,0.647867264829452
6.33,4,0.381349121575569,0.100548315886919,-0.075807977538377,0.19037446211127,0.0746584470147811,-0.0609047720775984,0.0255033010854417,-0.159845779798781,-0.00452691223893958,0.0175379701122064,0.455132704652038,-0.00790429395428327,0.177770317697684,-0.203344828638569,-0.075991088595233,-0.0599790439568265,0.646921191035696
6.36,4,0.414665161086866,0.112094485305338,-0.0830103457747124,0.21683400982696,0.0923388368378755,-0.0706706951099175,0.0294910529903053,-0.153823460595518,-0.00664286222927539,0.00945056510106713,0.519119846186712,-0.010620441297647,0.207078259631133,-0.207342753379925,-0.0833867407249163,-0.0712607196264534,0.639189835301777
6.39,4,0.452477594327626,0.12661112297942,-0.0965809096550391,0.245378989023509,0.098350983204647,-0.0777509893083488,0.0353912981556647,-0.155735953856014,-0.000376394950203965,0.0259712515640736,0.564785709199296,-0.0196844386120182,0.240028077028718,-0.212195196386608,-0.0965707368185471,-0.0782291126234728,0.633615120904162
6.42,4,0.491500595110935,0.1313414919482,-0.0988189336832789,0.275429548020875,0.103091525009919,-0.0846583452864162,0.0375072481460006,-0.158909878841517,-0.00513728242845953,0.0241604866684978,0.598437452314829,-0.0179143650624104,0.274666585283975,-0.216589861751152,-0.098300119022187,-0.0854518265327921,0.628386282947274
6.45,4,0.535203100680563,0.147251808221686,-0.110619424013998,0.30634479812006,0.103732413708914,-0.0915657012644836,0.0415356913968322,-0.157892595192317,-0.0054221218502355,0.0428581601407921,0.646361685028637,-0.0355744092125207,0.312133142084007,-0.222825810520748,-0.111301004058962,-0.0920845159255755,0.624459568061363
6.48,4,0.579943235572375,0.15164647358623,-0.114942879523097,0.336212246060569,0.097832168543555,-0.0964893541266111,0.0496332692444634,-0.161514124983469,-0.000905382447787917,0.0442620115766879,0.69233273313598,-0.0773440758486689,0.352407401755832,-0.227322204250211,-0.115156509089429,-0.0959095024465672,0.621316161585335
6.51,4,0.629627368999298,0.167455061494797,-0.125217444380016,0.368643248797062,0.115227718944873,-0.104800561540574,0.0536210211493271,-0.132867417422,-0.00501520839055554,0.0630410677409182,0.740562150944548,-0.0618508458713543,0.395733512375256,-0.233619190038759,-0.126478876105024,-0.106041647592598,0.60994293038728
6.54,4,0.674865972879218,0.154098127180802,-0.121311075167089,0.404319386374503,0.123681346069725,-0.115654978077537,0.0849940488906522,-0.13408815780104,-0.0171005381430504,0.0614846237576423,0.728558203883989,-0.0499689728486994,0.439710684530168,-0.234921313109734,-0.119378236233609,-0.115644805241045,0.593707083346049
6.57,4,0.723980427462589,0.167394024475845,-0.12584816024252,0.443433942686239,0.130029196040732,-0.122389395835241,0.065380820134078,-0.156712546159246,-0.0021668141727958,0.0674255602689698,0.817672251553901,-0.0993174026713869,0.486088646097191,-0.237637460453098,-0.126743369853816,-0.126926480910672,0.56857000437432
6.6,4,0.775027720979441,0.17490157780694,-0.133508306120996,0.475071464176356,0.0992156743064669,-0.121351766513057,0.0855230363882361,-0.151422671183406,-0.00969471317687511,0.0440382091738639,0.857427696564633,-0.128666035950804,0.536423841059603,-0.23835973184403,-0.133976256599628,-0.122074037903989,0.527186905524867
6.63,4,0.828974272896512,0.183579007334615,-0.140415662099063,0.501632740256966,0.08676412244026,-0.120843124688457,0.102613401694795,-0.144342376984975,-0.0172633035269224,0.0295317443362733,0.884558651488795,-0.134678182317576,0.588956368704286,-0.239824620298878,-0.140313933734143,-0.121484013387453,0.481999165827408
6.66,4,0.885026601967427,0.192988881089714,-0.147160252693258,0.518641722871588,0.0392671488591164,-0.105970437737154,0.076489557583341,-0.212337616097496,-0.00591041800185146,0.0146488845484787,0.960580258593504,-0.138950773644215,0.643971068453017,-0.240831731111586,-0.146794030579546,-0.11169774468215,0.450463372702211
6.69,4,0.949003570665609,0.2188177129429,-0.164209926653849,0.519557278155868,0.00102745648569191,-0.0935494043804234,0.103793450727866,-0.136977243364767,-0.00835189875993123,-0.00943021942808313,1.03111870682903,-0.226569414349803,0.704285816014079,-0.244483779412214,-0.165786716310109,-0.0938342438021994,0.406160669779555
6.72,4,1.01109856461277,0.212836085085604,-0.165735852127649,0.520004882961516,0.000183111056855983,-0.0937528611102634,0.119256162195705,-0.127455468408256,-0.0160018718019145,-0.0178329823704744,1.03578803877885,-0.184921821751559,0.766238390250354,-0.244626199123101,-0.165196691793573,-0.0936307870723594,0.340220343638417
6.75,4,1.07258318837041,0.212022258166245,-0.163335062715537,0.520004882961516,0.000152592547379986,-0.0934985401979634,0.10350861130609,-0.119113742484817,-0.0190130314035463,0.109988708151494,1.03653065584277,-0.0986358226264229,0.828923408714052,-0.243415631580554,-0.163782667521185,-0.0935392315439314,0.269376710308135
6.78,4,1.1265093946145,0.185684784488459,-0.149622079124322,0.517593920712912,-0.00767031871496729,-0.0894090599281798,0.130486973682872,-0.0415967284157842,-0.0401318399609363,0.242296619566434,0.895179092786442,0.0378836430962045,0.887213761813206,-0.239031139052502,-0.149194819991658,-0.0905178991058077,0.159072644225389
6.81,4,1.16687520981475,0.141961933245847,-0.100517797377443,0.514043600777205,-0.0179652292448703,-0.0801416058839686,0.15388449761447,-0.0875372580136519,-0.0449741101311279,0.39219336527604,0.645995462914925,0.212286751915036,0.933347575304422,-0.233273313598031,-0.0818404695781325,-0.0616779076509903,0.0735292621641692
6.84,4,1.2138635415713,0.166346222317169,-0.011047700430311,0.508682515945921,-0.0128177739799188,-0.0228481907610299,0.136875514999847,-0.156997385581022,-0.0442823572496719,0.542344431897946,0.374675740836818,0.501439456363618,0.963866084780419,-0.249763481551561,-0.0173243405458744,-0.00737530645669932,0.0234687337870418
6.87,4,1.25308999908444,0.144657734916227,-0.0230516474908699,0.502548295541246,-0.0204779198583941,-0.0132246874395988,-0.0407422101504562,-0.134942676066368,-0.0165308592994985,0.582171086764122,-0.183314513585823,0.633523565375734,0.969705292926827,-0.283160903754794,-0.0255338195949176,-0.00533056632180751,0.00619525742362743
6.9,4,1.25121819716992,0.0169784641051464,-0.00835189875993123,0.498173975849686,-0.010559404278695,-0.00899278745892717,0.00462864060385957,-0.152439954832606,0.00707012136193935,0.486810917488123,-0.691986856695252,0.384278898485265,0.93298135319071,-0.318013041576383,-0.00128177739799188,-0.00587989949237546,0.00256355479598376
6.93,4,1.22749514247057,-0.0577817112745547,-0.0032756533504237,0.49615975422427,-0.00313323363953571,-0.0398978647216203,0.100660217088331,-0.210018209377321,0.0115461694184189,0.282621743420718,-0.850774661498866,0.134098330637532,0.874701172928047,-0.352570167139704,-0.0338246813358969,-0.11327453433841,0.00182093773206783
6.96,4,1.16601051871293,-0.196193324584694,-0.0847193823053682,0.432376069419436,-0.325663014618366,-0.126682332834864,-0.150364696188238,-0.0420443332214321,-0.00285856705425174,0.148777733695486,-1.30608030437127,0.0358897671437727,0.812789290037741,-0.353007599108859,-0.0858689128289641,-0.148503067110202,0.00167851802117985
6.99,4,1.06694743695385,-0.332326222520625,-0.043163345235552,0.281370484532202,-0.534348582415235,-0.0163274025696585,-0.197403892127242,-0.0315866573076571,-0.00371308531957966,-0.0995310322377188,-2.2108116906237,-0.144210130110579,0.702241075879187,-0.364482558671834,-0.0426852219204281,0.0280770287179174,0.00167851802117985
7.02,4,0.956857000437432,-0.37438072857855,-0.0278328806421094,0.13205359050264,-0.499689728486994,-0.0043844925280516,-0.0199489323608102,-0.190486363312682,-0.0287382630898974,-0.116265348267057,-2.36143070772423,-0.273140659810175,0.564582252469456,-0.39204077272866,-0.0238756472467218,0.101453698334707,0.00167851802117985
7.05,4,0.831466617837052,-0.421796319467757,-0.00891140476699118,0.0097557501958271,-0.372274951424706,0.075645212154505,0.0293282876064333,-0.19886878058209,-0.0288196457818333,-0.113284707174902,-2.52642394278797,-0.185633920305999,0.417655975015514,-0.413576667582222,-0.00101728364919991,0.135603910438348,0.00167851802117985
7.08,4,0.711925616219571,-0.401389609464807,0.0087384665466272,-0.0263069551683096,-0.0548824528743349,0.0508336639505193,0.108228807438378,-0.302184107994832,-0.0349233476770328,0.0582191432437106,-2.52792952258878,-0.264585304320404,0.262347280292164,-0.449354533524583,0.00842310861537523,0.0461541591641998,0.00167851802117985
7.11,4,0.59035004730369,-0.403383485417239,0.0175379701122064,-0.0129907122002828,0.0597552415540025,0.0182195501571703,0.0692058066550696,-0.278583127333394,-0.0177109083325704,0.0867132582578,-2.35188858709474,0.0100202439446191,0.119856359548733,-0.470249539679149,0.0203558458204901,-0.0117089348022909,0.00150557980081586
7.14,4,0.475732698548336,-0.383078503779209,0.0260628070925016,-0.000854518265327921,0.0304778181300292,-0.00351980142623168,0.103834142073834,-0.317117831965087,-0.00892157760348318,0.0667846715699738,-2.09951068656473,-0.0929492070273954,-0.0140486871954507,-0.489638966032899,0.0284941150140894,-0.0129805393637908,0.00156661681976786
7.17,4,0.370850754315826,-0.350403352966908,0.0319121880754011,-0.00136316008992787,-0.00331634469639169,0.00207525864436781,0.153721732230598,-0.314513585823135,-0.00664286222927539,0.00562557858007548,-1.72363455102186,-0.245989359213029,-0.130283516953032,-0.501052888576922,0.0331837926369009,0.00262459181493576,0.00167851802117985
7.2,4,0.282296212652974,-0.298542232530697,0.032308928698589,-0.00160730816573585,0.000152592547379986,0.000152592547379986,0.117302977589241,-0.247006642862229,-0.00945056510106713,0.126295765048168,-1.33836888739687,-0.400819930621255,-0.221299885046948,-0.503494369335002,0.032553076774397,0.000854518265327921,0.00167851802117985
7.23,4,0.215511541083,-0.226905117954039,0.0263578193507696,-0.00180059205908383,0.000152592547379986,0.000152592547379986,0.100171920936715,-0.202164779605497,-0.0180364391003143,0.0258084861802016,-0.900774152857041,-0.277921892961414,-0.287148655659658,-0.502578814050722,0.0255236467584257,0.0010681478316599,0.00167851802117985
7.26,4,0.170364492731508,-0.155288349050366,0.0181890316476943,-0.00200404878892382,0.000152592547379986,0.000152592547379986,0.0749432864365571,-0.170588295134332,-0.0170598467970824,0.0554317860449029,-0.601153599658193,-0.0904059979043957,-0.331380148726869,-0.501693777275918,0.0156254768517106,0.0010681478316599,0.00167851802117985
7.29,4,0.141076896471043,-0.102104759870195,0.00929797255368714,-0.0021668141727958,0.000152592547379986,0.000152592547379986,0.0614744509211503,-0.149754325998718,-0.0130314035462508,0.0185145624154383,-0.373943296609394,0.122603025401573,-0.359447004608295,-0.50043234555091,0.00696839299701936,0.0010681478316599,0.00223802402823979
7.32,4,0.117984557634205,-0.0804671366517126,0.00477106031474756,-0.00233975239315978,0.000152592547379986,0.000152592547379986,0.0453199865718558,-0.141249834691407,-0.00643940549943541,-0.00402844325083163,-0.23383281960509,0.229631438133895,-0.377147740104373,-0.495071260719626,0.00421155430768761,0.0010681478316599,0.00180059205908383
7.35,4,0.0992868841619109,-0.0645669932147181,0.00301115960163172,-0.00244148075807978,0.000152592547379986,0.000152592547379986,0.0451165298420158,-0.144871364482559,-0.000946073793755913,-0.032848089032665,-0.0787072359385968,0.21607104709006,-0.386252428764712,-0.485457930234687,0.00320444349497971,0.0010681478316599,0.00167851802117985
7.38,4,0.0837631356751203,-0.0530106509598071,0.00249234494053977,-0.00247199926755577,0.000152592547379986,0.000152592547379986,0.043244727927488,-0.155451114434238,0.000478123315123956,-0.0535701569668671,0.0724102501500493,0.0537024038412631,-0.386181218909268,-0.469883317565437,0.00227871537420779,0.00140385143589587,0.00167851802117985
7.41,4,0.0698263496810816,-0.0480564795882036,0.00195318460646382,-0.00259407330545976,0.000152592547379986,0.000152592547379986,0.0382396923734245,-0.165868099002045,-0.000417086296171962,-0.0642007711010061,0.185410117903175,-0.172877183345032,-0.378226060772525,-0.447971027761671,0.00236009806614378,0.00152592547379986,0.00167851802117985
7.44,4,0.0565101067130548,-0.0460219122898038,0.00382498652099165,-0.00259407330545976,0.000152592547379986,0.000152592547379986,0.0427157404299041,-0.17795342875454,-0.00399792474135563,-0.0723797316405733,0.331746370840581,-0.297463911862545,-0.362447991373435,-0.418866542558061,0.00347911008026368,0.00152592547379986,0.00167851802117985
7.47,4,0.0454013692637918,-0.0393688772240364,0.00285856705425174,-0.00270597450687175,0.000152592547379986,0.000152592547379986,-0.0178736737164424,-0.192683695994954,-0.0243435977253538,-0.086601357056388,0.389762057354452,-0.253100171920937,-0.339782911669261,-0.385102898241117,0.00308236945707572,0.00152592547379986,0.00167851802117985
7.5,4,0.0291248308765933,-0.0557267983031709,0.00571713410850347,-0.00516780093793552,-0.00967436750389111,0.00313323363953571,-0.396791487370423,-0.212052776675721,-0.150608844264046,-0.0380667541530605,0.0812097537156285,0.142155217139195,-0.32375052135787,-0.352793969542528,0.00731426943774733,0.00521866512039552,0.0249743135878577
7.53,4,0.0043539740185756,-0.0830306914476964,0.0122379222998749,-0.00886054058453118,-0.0131636504206468,0.00725323241879533,-0.0680054119490137,-0.136570329905087,-0.0393180130415764,-0.106590980763166,-0.0298064109215573,0.23627430036317,-0.32527644683167,-0.329508346812342,0.0158797977640105,0.0100507624540951,0.0809350871303445
7.56,4,-0.010539058605711,-0.0527461572110152,0.0146488845484787,-0.0122074037903989,-0.00812809635710725,0.00806705933815526,-0.0749229407635731,-0.130466628009888,-0.0409456668802962,-0.0355540635395367,0.0245368816187017,-0.0986765139723909,-0.325795261492762,-0.315042573320719,0.0124210333567309,0.00963367615792311,0.0848414563432722
7.59,2,-0.02198349965921,-0.0396842351552883,0.010427157404299,-0.0127363912879828,-0.00332651753288369,0.00786360260831528,-0.0486770226142155,-0.141453291421247,-0.021210364085818,-0.0557878353221229,0.0641092155725781,-0.191005177973774,-0.322397534104434,-0.300180059205908,0.0103152562028871,0.00679545477665537,0.104281746879482
7.62,2,-0.0317087313455611,-0.032990508743553,0.010966317738375,-0.0165715506454665,-0.0151880448825546,0.00924710837122715,-0.0639769686981821,-0.14686524043499,-0.0101830093284911,-0.0315357931251971,0.075645212154505,-0.183467106133203,-0.318369090853603,-0.286426384268726,0.0148726869513026,0.0119123915321309,0.123233741264077
7.65,2,-0.0372732729066846,-0.0185298216701763,0.0183161921038443,-0.0236416720074058,-0.0273598437452315,0.0114088361257769,-0.0646280302336701,-0.142307809686575,-0.00192266609698782,-0.0379599393698945,0.0970336008789331,-0.0742566199733472,-0.313231808425143,-0.275709301024405,0.0151371807000946,0.0133416750592568,0.149159215063936
7.68,2,-0.0420341603849401,-0.0162867112236905,0.0116173792738629,-0.0368358409375286,-0.0485244300668355,0.0165308592994985,-0.0525427004811752,-0.143650624103519,-0.0127465641244748,-0.0501113925595874,0.0917895036673076,-0.0133976256599628,-0.307331563259784,-0.265104118981496,0.0119429100416069,0.0229499191259499,0.175023651844844
7.71,2,-0.0497960346283354,-0.0250556962797937,0.021851252784814,-0.0531632435071871,-0.0551774651326029,0.0262662638223416,-0.0529903052868231,-0.156956694235054,-0.0162053285317545,-0.0470493687754957,0.0948922187973673,-0.06549272133549,-0.30202134261096,-0.252021851252785,0.0315663116346731,0.0344757428713848,0.222978403068127
7.74,2,-0.0508540096235033,-0.00271614734336375,0.0394400870794804,-0.0665913876766259,-0.0380158899706005,0.0360118411816767,-0.0576698100731427,-0.161595507675405,-0.0118920458591469,-0.0515152439954833,0.202703939939573,-0.0984018473871069,-0.293028555152033,-0.241950743125706,0.0348419649850968,0.0352081870988088,0.295185196488337
7.77,2,-0.0501927752515234,0.00197353027944782,0.0285958433790094,-0.0752789900407931,-0.0293384604429253,0.0300607318338572,-0.0401318399609363,-0.159235409609261,-0.0116885891293069,-0.0464084800764997,0.19698680583107,-0.126692505671356,-0.273364462212999,-0.222958057395143,0.0292672505874813,0.0284839421775974,0.359019745475631
7.8,2,-0.0500503555406354,0.000183111056855983,0.0301421145257932,-0.086479283018484,-0.0388500625629444,0.032939644561093,-0.0490839360738955,-0.155125583666494,-0.00749738049460331,-0.043997517827896,0.173924985503708,-0.105787326680298,-0.2598854538611,-0.209560431735181,0.0303659169286172,0.0361440880560727,0.418113752657654
7.83,2,-0.0501215653960794,0.000152592547379986,0.0303557440921252,-0.097832168543555,-0.0360728782006287,0.0369375693024486,-0.0395214697714164,-0.159927162490717,-0.00884019491154719,-0.0253100171920937,0.185745821507411,-0.149957782728558,-0.247617013051749,-0.197261472416354,0.0304574724570452,0.0377513962218085,0.464217047639393
7.86,2,-0.0503657134718874,0.000152592547379986,0.0309457686086612,-0.104403820917386,-0.0183314513585823,0.0333465580207729,-0.0389110995818964,-0.158787804803613,-0.00704977568895535,-0.0195420189011302,0.191737622201198,-0.149032054607786,-0.230831832839951,-0.180211798455763,0.0308236945707572,0.0291553493860693,0.503555406353954
7.89,2,-0.0529496139408551,-0.00725323241879533,0.0339060640278329,-0.109591967528306,-0.0178635008799504,0.0292163864050213,-0.0345571255633208,-0.158218125960061,-0.00566626992604348,-0.0227566352326019,0.183273822239855,-0.12681457970926,-0.218634601886044,-0.165420494196397,0.0355235450300607,0.0297962380850653,0.537156285287027
7.92,2,-0.0551876379690949,-0.00701925717947935,0.0362763349304687,-0.113823867508978,-0.0100405896176031,0.0281787570828374,-0.0285348063600574,-0.160944446139917,-0.00497451704458754,-0.032603940956857,0.187699006113875,-0.0573239336324147,-0.204596087527085,-0.149225338501134,0.0368358409375286,0.0272530289620655,0.574755088961455
7.95,2,-0.0596026490066225,-0.0133365886410108,0.0417696666361482,-0.113966287219866,0.000132246874395988,0.0233059684031699,-0.0343129774875128,-0.158706422111677,-0.00709046703492335,-0.0420545060579241,0.170649332153284,-0.0379141616056805,-0.192144535660878,-0.132318084251432,0.0422477899512721,0.0206305124057741,0.629454430778934
7.98,2,-0.0620339569282103,-0.00668355357524339,0.043387147638376,-0.11342712688579,0.00362152979115167,0.0210374258654541,-0.0357778659423607,-0.160334075950397,-0.00595110934781945,-0.0463067517115797,0.210659098076317,-0.0403149510177923,-0.181096835230567,-0.118828903063041,0.0424512466811121,0.0202134261096021,0.712546159245582
8.01,2,-0.0623391420229703,-0.000172938220363984,0.0383821120843125,-0.107038585568814,0.0272326832890815,0.0152287362285226,-0.022268339080986,-0.160456149988301,-0.00342824589780368,-0.0368256681010366,0.2226325266274,-0.0162765383871985,-0.162450025940733,-0.0998870815149388,0.0382702108829005,0.00620543026011943,0.800632750429802
8.04,2,-0.0627104505549282,0.000152592547379986,0.0380718405713065,-0.0934781945249794,0.0440687276833399,-0.00300607318338572,-0.032135990478225,-0.158686076438693,-0.00188197475101983,-0.0171870072532324,0.231264178390861,-0.010630614134139,-0.147989338867356,-0.0850499994913582,0.0381481368449965,-0.00614439324116743,0.860586362295399
8.07,2,-0.0629495122124902,0.000152592547379986,0.0381786553544725,-0.0806451612903226,0.0388449761446984,-0.00359609769992167,-0.0255439924314096,-0.159316792301197,-0.00173955504013184,0.00894700969471318,0.228064821314127,8.13826919359925e-05,-0.136351613920509,-0.0731579536322113,0.0383159886471145,-0.00526952930285552,0.885301268552711
8.1,2,-0.0632190923795282,0.000152592547379986,0.0386771243425804,-0.0666727703685619,0.0490941089103875,-0.00618508458713543,-0.0224921414838099,-0.157668792789493,-0.00281787570828374,0.0247962889492477,0.230287586087629,0.0064750104271574,-0.121865494755903,-0.0584429456465346,0.0386059144871364,-0.0133060701315348,0.888800724305958
8.13,2,-0.0633259071626942,0.000152592547379986,0.0386008280688904,-0.054211045665863,0.0380565813165685,-0.010457675913775,-0.0290434481846573,-0.158238471633045,-0.00401827041433963,0.0351725821710868,0.22095400860622,0.00172938220363984,-0.113177892391736,-0.0496993926816614,0.0386059144871364,-0.0114393546352529,0.887371440778832
8.16,2,-0.0633259071626942,0.000152592547379986,0.0387076428520564,-0.0447350484735659,0.032878607542141,-0.00921150344350515,-0.0160222174748985,-0.157933286538285,-0.00503555406353954,0.0368968779564806,0.236213263344218,0.00145471561835587,-0.101377402061017,-0.0378734702597125,0.0386059144871364,-0.00698873867000336,0.88659830520544
8.19,2,-0.0633259071626942,0.000152592547379986,0.0385753959776605,-0.0299386577959532,0.053895687734611,-0.011327453433841,-0.0153101189204586,-0.156916002889086,-0.00584938098289946,0.0364187546413567,0.258451083915728,0.00800602231920326,-0.0843379009369182,-0.0207729321166621,0.0386059144871364,-0.0196996978667562,0.882305368205817
8.22,2,-0.0633259071626942,0.000152592547379986,0.0386618650878424,-0.0155644398327586,0.044012777082634,-0.0177363404238004,-0.0224311044648579,-0.160069582201605,-0.00625629444257942,0.0453555914995778,0.262184514908292,0.00174972787662384,-0.0750501012197231,-0.0115105644906969,0.0386059144871364,-0.0191707103691722,0.883404034546953
8.25,2,-0.0633259071626942,0.000152592547379986,0.0386923835973184,-0.0032400484227017,0.0422732220425021,-0.0186569821263263,-0.00847397279783522,-0.159621977395957,-0.00570696127201147,0.0564032919298888,0.276487523016043,-0.000249234494053977,-0.0593890194402905,0.00399283832310963,0.0386059144871364,-0.0203202408927681,0.887646107364116
8.28,2,-0.0633208207444482,0.000152592547379986,0.0386567786695964,0.0120395519882809,0.0534633421837011,-0.0244961902727337,-0.00849431847081922,-0.160863063447981,-0.00440483820103559,0.0657724743390199,0.289702037619149,0.0010834070863979,-0.0422070986053041,0.0211645863216041,0.0386059144871364,-0.0319325337483851,0.888266650390128
8.31,2,-0.0631733146153142,0.000152592547379986,0.0387483341980244,0.0270851771599475,0.0495010223700674,-0.0333669036937569,-0.00745668914863531,-0.160781680756045,-0.00517797377442752,0.086998097679576,0.30138554033021,-0.00443535671051159,-0.0265714489171016,0.0366934212266406,0.0386059144871364,-0.0382040874457025,0.889024526708782
8.34,2,-0.0630410677409182,0.000152592547379986,0.0386720379243344,0.0423037405519781,0.0521815647857092,-0.0422732220425021,-0.00696839299701936,-0.164220099490341,-0.00745668914863531,0.0962706381420331,0.332667012543107,-0.0132094281848608,-0.0100405896176031,0.0530564287240211,0.0386059144871364,-0.0478326771853796,0.889339884640034
8.37,2,-0.0628681295205542,0.000152592547379986,0.0383058158106225,0.0581733654794966,0.0525121819716992,-0.0581784518977426,-0.00932849106316314,-0.163589383627837,-0.0125227617216508,0.0957772555721712,0.377981912696717,-0.0141707612333547,0.00598671427554145,0.0690481276894437,0.0381633960997345,-0.0592923774936166,0.886440626239814
8.4,2,-0.0628528702658162,0.000152592547379986,0.0381176183355205,0.0745414593951231,0.0563422549109368,-0.0727408673360393,0.00450656656595559,-0.161493779310485,-0.0124413790297149,0.0804925687429426,0.425102491327657,0.0043132826726076,0.0285653248695334,0.0916470839564196,0.0381481368449965,-0.0734071881262652,0.883953367717521
8.43,2,-0.0618610187078463,0.00286873989074374,0.0383566799930825,0.0921760714540035,0.0580919827875607,-0.0905535040335297,0.00611387473169144,-0.163528346608885,-0.00806705933815526,0.0964079714346751,0.456968901638844,0.00643431908118941,0.054246650593585,0.116346730958993,0.0372936185796686,-0.0914283679718416,0.875311543117567
8.46,2,-0.0599943032115645,0.00594602292957345,0.032766706340729,0.10938342438022,0.0568712424085208,-0.106067079683828,0.00475071464176356,-0.169428591774244,-0.00855535548977121,0.122613198238065,0.503886023539944,-0.000203456729839981,0.0822728151290424,0.142470575070447,0.033031200089521,-0.10874762209947,0.866334014913378
8.49,2,-0.054353465376751,0.0185399945066683,0.0300861639250872,0.122013000885037,0.032324187953327,-0.112679423403628,-0.0139673045035147,-0.208858506017233,-0.0125634530676188,0.190872931099378,0.567155980101932,0.0596128218431145,0.114515620390433,0.16905219682404,0.0262560909858496,-0.116361990213731,0.841207108778141
8.52,2,-0.0410067038992482,0.0416984567807042,0.0147251808221686,0.122613198238065,-0.00612404756818344,-0.101143426821701,-0.0266019674265776,-0.244687236142053,-0.0314442375967691,0.182154810225735,0.751823480941191,0.0897701956236457,0.153024892930896,0.194260485651214,0.00689209672332937,-0.101606290882087,0.69146804203416
8.55,2,-0.0158543656727805,0.0695618559322896,-0.00609861547695344,0.115075126397493,-0.0386211737418744,-0.086911628569394,0.0384634947762485,-0.211645863216041,-0.0295927813552253,0.112114830978322,0.73423973306477,0.0900296029541917,0.200781273842586,0.216798404899238,-0.00684123254086937,-0.0931984415214494,0.39023509425133
8.58,2,0.0425071972818181,0.17502873826309,0.00394197414064964,0.0855739005706961,-0.121962136702577,-0.0944954781741793,-0.0479242327138076,-0.232540869370607,-0.0450554928230639,0.173991108940906,0.751767530340485,0.244020915351828,0.24336985381634,0.200923693553474,0.0451928261157058,-0.119240902940967,0.165883358256783
8.61,2,0.146972055218156,0.34349599698884,0.0583259580268766,0.0155186620685446,-0.270907722200181,-0.0794295073295287,-0.0384228034302805,-0.312031413719087,0.00780256558936328,-0.0745770643228451,0.884263639230527,-0.0715455590482294,0.292240160323903,0.145354574215929,0.0468459120456557,-0.00565101067130548,0.0924202195298115
8.64,2,0.282794681641082,0.461394085512864,-0.00348419649850968,-0.0366272977894426,-0.127496159754224,0.0125532802311268,0.0281278929003774,-0.224138106428215,0.0278227078056174,0.0852788883124282,1.2734865362509,-0.265236365855892,0.356990264595477,0.0742769656463312,-0.00601723278501745,0.0785139520452488,0.0714896084475234
8.67,2,0.397239092176071,0.396038697470016,-0.00964384899441511,-0.032380138554033,0.0479344055502996,0.0412152470473342,-0.103244117557298,-0.0963469344157231,-0.00574765261797947,0.0235145115512558,1.06859543646555,-0.697627694530066,0.43361715547146,0.0364543595690786,-0.0098218736330251,0.0445824559261859,0.0206966358429721
8.7,2,0.503591011281676,0.357697276731671,-0.0122328358816289,-0.0022075055187638,0.116433200069175,0.0306609291868852,-0.054536576433607,-0.136122725099439,-0.0228176722515539,-0.139881588183233,0.449110385448775,-0.662816248054445,0.474323760694194,-0.0290231025116733,-0.0144861191646067,0.0170700196335744,0.00555436872463149
8.73,2,0.583106987721386,0.272855820388399,-0.0130466628009888,0.032217373170161,0.115141249834691,0.00710063987141535,-0.0382193467004405,-0.100863673818171,-0.0278837448245694,-0.164337087109999,0.104993845433922,-0.616809595019379,0.491083508814763,-0.0918047629220455,-0.0132704652038128,0.00043234555090996,0.00243130792158778
8.76,2,0.634907071138646,0.178314564450006,-0.0351471500798568,0.0481175166071556,0.0397503585924863,0.000590024516535946,-0.0576291187271747,-0.054068625954975,-0.0341298664306569,-0.167770419426049,-0.389543341369874,-0.369782606484166,0.482024597918638,-0.152643411562446,-0.0564745017853328,-0.00995920692566708,0.00179041922259184
8.79,2,0.629693492436496,-0.0182449822484003,-0.087252418591876,0.0460676900540178,-0.0142368846705527,-0.0086519974364452,-0.150608844264046,0.0467441836807357,-0.0409456668802962,-0.1275266782637,-1.21463667714469,-0.175313577684866,0.421842097231971,-0.207576728619241,-0.0925575528224535,-0.0136417737357707,0.00167851802117985
8.82,2,0.564851832636494,-0.22011474959563,-0.0480463067517116,0.0402030498163803,-0.0192368338063702,-0.010615354879401,-0.0570187485376548,-0.0968962675862911,-0.0428785058137761,-0.0490635904009115,-1.90801721243934,0.04338206122013,0.314945931374045,-0.249682098859625,-0.0490839360738955,-0.00884019491154719,0.00167851802117985
8.85,2,0.464491714224677,-0.337880591245257,-0.0248573259681997,0.0361491744743187,-0.00961333048493912,-0.00951668853826512,-0.0311797438479771,-0.155491805780206,-0.0475580106000956,0.0477818130029196,-2.27492599261452,0.276314584795679,0.188970610675375,-0.275307473982971,-0.0145675018565427,-0.00950142928352713,0.00167851802117985
8.88,2,0.350077822199164,-0.383103935870439,0.00563575141656748,0.0352692241177608,-4.06913459679963e-05,-0.00986765139723909,0.0807621489099806,-0.307697785373496,-0.0234076967680898,0.076041952777693,-2.34265165156,0.474394970549638,0.0448927274391919,-0.30494603310241,0.00958789839370912,-0.0122531815546129,0.00167851802117985
8.91,2,0.235134942676066,-0.381069368572039,0.0223497217729219,0.0335551011688589,-0.00744651631214331,-0.011052786848557,0.0643635364848781,-0.308328501236,-0.00149540696432386,0.0231635486922819,-2.0525783054089,0.759117404705954,-0.0841497034618163,-0.319188004191209,0.0271818191066215,-0.0098320464695171,0.00167851802117985
8.94,2,0.140654723756625,-0.317585782443719,0.0293028555152033,0.0331125827814569,-4.06913459679963e-05,-0.010661132643615,0.0798465936257007,-0.285256508072146,0.0183619698680583,-0.00512710959196753,-1.66584775332906,0.631982380647196,-0.19551174453973,-0.336085085604419,0.0314137190872931,-0.011322367015595,0.00167851802117985
8.97,2,0.0677307453637298,-0.245119581692963,0.0292774234239733,0.0332193975646229,0.000152592547379986,-0.010793379518011,0.0787479272845648,-0.241391237118646,0.0207220679342021,-0.086708171839554,-1.19270404166794,0.328516495254372,-0.28044475641143,-0.34809920550147,0.0307168797875912,-0.0114444410534989,0.00167851802117985
9,2,0.0200964384899441,-0.160964791812901,0.0250811283710237,0.0334025086214789,0.000152592547379986,-0.011368144779809,0.0743736075930052,-0.19724112674337,-0.00267545599739575,-0.123488062176377,-0.816782128360851,-0.0126041444135868,-0.340311899166845,-0.360321868546607,0.0244249804172898,-0.0114444410534989,0.00167851802117985
9.03,2,-0.00348419649850968,-0.0810164698222806,0.0172989084546444,0.0334177678762169,0.000152592547379986,-0.011139255958739,0.0592974639118625,-0.167882320627461,-0.021210364085818,-0.13416445407473,-0.501205481124302,-0.0281482385733614,-0.378215887936033,-0.374523148289438,0.0148523412783186,-0.0114444410534989,0.00167851802117985
9.06,2,-0.0116784162928149,-0.0282245348470514,0.00972014526810511,0.0334177678762169,0.000152592547379986,-0.0115207373271889,0.0525833918271432,-0.157485681732637,-0.0249132765689057,-0.126117740409558,-0.288232062746055,0.0914385408083336,-0.401018300932849,-0.389121168655456,0.00688701030508337,-0.0114444410534989,0.00167851802117985
9.09,2,-0.0153304645934426,-0.010956144901883,0.0054119490137435,0.0334991505681529,0.000152592547379986,-0.0114902188177129,0.0513829971210873,-0.155451114434238,-0.0175074516027304,-0.142694377473271,-0.158589434492019,0.233771782586138,-0.402991831212297,-0.3874121321248,0.00378429517502365,-0.0114444410534989,0.00167851802117985
9.12,2,-0.021159499903358,-0.0171717479984944,0.00468459120456557,0.0333312987660349,0.000152592547379986,-0.0116682434563229,0.0556352427747429,-0.157872249519333,-0.00914538000630716,-0.189774264758243,-0.0423139133884701,0.333363851842809,-0.406130151270079,-0.384706157617929,0.00550859096041749,-0.0114444410534989,0.00167851802117985
9.15,2,-0.0278990040793074,-0.0207983642078921,0.00590533158360546,0.0331939654733929,0.000152592547379986,-0.0115309101636809,0.054394156722719,-0.160252693258461,-0.0188706116926583,-0.220246996470026,0.0954822433139032,0.371745963927122,-0.404314299956257,-0.376216925565355,0.00712607196264534,-0.0114444410534989,0.00167851802117985
9.18,2,-0.0334279407127089,-0.0170801924700664,0.00702943001597135,0.032242805261391,-0.0054780724509415,-0.0115309101636809,-0.0121565396079389,-0.166722617267373,-0.0790124210333567,-0.184408093508713,0.179815057832575,0.516307056896675,-0.395006154566078,-0.361354411450545,0.00741091138442132,-0.010437330240791,0.00167851802117985
9.21,2,-0.0418256172368542,-0.0270750043234555,0.00858078758100121,0.0277616707866654,-0.0192164881333862,-0.00936918240913114,-0.130039368877224,-0.200516780093794,-0.104871771396018,-0.210440382091739,0.10389009267454,0.69518112735374,-0.386867885372478,-0.344803206478062,0.0097862687053031,-0.00517797377442752,0.0169530320139164
9.24,2,-0.0523188980783512,-0.0331736198004089,0.0115461694184189,0.0125888851588488,-0.0595975625883765,0.00483718375194556,-0.0611285744804224,-0.149835708690654,-0.0412305063020722,-0.114830978321685,0.104571672719504,0.17683441674042,-0.380326751508123,-0.327763705353964,0.0128838974171168,0.00972014526810511,0.102959278135523
9.27,2,-0.0561540574358348,-0.0130822677287108,0.0179550564083783,-0.0103050833663951,-0.0817489140497045,0.0160730816573585,-0.065726696574806,-0.138401440473647,-0.0552690206610309,-0.0787072359385968,0.11027354757327,-0.165593432416761,-0.37407554348379,-0.317738374991099,0.0272021647796055,0.0363373719494207,0.14910326446323
9.3,2,-0.0527461572110152,0.0136214280627867,0.032848089032665,-0.0297606331573433,-0.054012675354269,0.0417391481266722,-0.0490432447279275,-0.15449486780399,-0.0227973265785699,-0.0813572598447625,0.184692932930489,-0.251838740195929,-0.362269966734825,-0.309284747866248,0.0275734733115635,0.043646554968922,0.199056978057192
9.33,2,-0.0505793430382193,0.00795515813674327,0.0236416720074058,-0.0379751986246325,-0.0233161412396619,0.0315866573076571,-0.043183690908536,-0.171117282631916,-0.00383515935748365,-0.108829004791406,0.165898617511521,-0.115309101636809,-0.350698365225176,-0.299905392620624,0.0255541652679016,0.0261441897844376,0.283913693655202
9.36,2,-0.0505946022929573,0.000513728242845953,0.0300302133243812,-0.0517492192347992,-0.054007588936023,0.0352743105360067,-0.0686157821385337,-0.144932401501511,-0.0189316487116103,-0.127104505549282,0.140710674357331,0.0065309610278634,-0.345800144454278,-0.294966480503759,0.0305490279854732,0.0445875423444319,0.375733715831985
9.39,2,-0.0508743552964873,0.000152592547379986,0.0307728303882972,-0.0699382508824936,-0.0576036866359447,0.0564745017853328,-0.0457065543585518,-0.166315703807693,-0.0182805871761223,-0.120456556901761,0.154067608671326,-0.054297514776045,-0.339274269844661,-0.288186284981841,0.0308542130802332,0.0570390942106388,0.466516108686585
9.42,2,-0.0511388490452793,0.000152592547379986,0.0312407808669291,-0.0841497034618163,-0.0460422579627878,0.054862107201351,-0.0478631956948556,-0.155898719239886,-0.0136010823898027,-0.125583666493728,0.152378917813654,-0.0228888821069979,-0.32873521123895,-0.27739290546383,0.0312814722128971,0.0549740084027629,0.564287240211188
9.45,2,-0.0513829971210873,0.000152592547379986,0.0312814722128971,-0.0986154769534389,-0.0474155908892076,0.0596840316985585,-0.0448113447472559,-0.158909878841517,-0.0125837987406028,-0.105563524277474,0.139032156336151,-0.0193182164983062,-0.313628549048331,-0.262011576687928,0.0312814722128971,0.0609047720775984,0.635558132674134
9.48,2,-0.0530513423057751,-0.00445570238349559,0.032258064516129,-0.111056855983154,-0.0390331736198004,0.0616677348144983,-0.043183690908536,-0.157282225002798,-0.0121768852809229,-0.101392661315755,0.112887966551714,0.00581886247342346,-0.298959318826868,-0.245694346954761,0.0336720887885169,0.0618610187078463,0.694509720145268
9.51,2,-0.0558386995045829,-0.00695822016052736,0.0376598406933805,-0.121626433098341,-0.0336924344615009,0.0615151422671183,-0.0466424553158157,-0.156956694235054,-0.011159601631723,-0.103640858180486,0.100772118289743,0.011139255958739,-0.288755963825393,-0.232693461917987,0.0372732729066846,0.0619525742362743,0.741142002624592
9.54,2,-0.0582089704072186,-0.00563575141656748,0.0394604327524644,-0.130252998443556,-0.0266630044455295,0.0611285744804224,-0.0457472457045198,-0.155491805780206,-0.011240984323659,-0.103793450727866,0.103651031016978,0.00612404756818344,-0.28044475641143,-0.22202215643788,0.0390738649657684,0.0622984506770023,0.7781304361095
9.57,2,-0.0611692658263904,-0.00797550380972727,0.0402335683258563,-0.136529638559119,-0.0176091799676504,0.0600909451582385,-0.0452996408988718,-0.157078768272958,-0.00713115838089134,-0.0965910824915311,0.118605100660217,-0.0118411816766869,-0.272916857407351,-0.211523789178137,0.0413627531764682,0.0599281797743665,0.821049633269244
9.6,2,-0.0613422040467544,-0.00053916033407595,0.0385041861222165,-0.140893785414187,-0.0131433047476628,0.0561845759453108,-0.0402132226528723,-0.159113335571357,-0.00664286222927539,-0.0766624958037049,0.114464756207973,-0.0121972309539069,-0.261838638467564,-0.200262459181494,0.0380362356435845,0.0571103040660827,0.8643350525427
9.63,2,-0.0614744509211503,0.000152592547379986,0.0376293221839045,-0.142775760165207,-0.00300098676513972,0.0552791934975229,-0.0409456668802962,-0.158136743268125,-0.00513728242845953,-0.0630919319233782,0.109378337961974,-0.0115258237454349,-0.249061555833613,-0.187363302509639,0.0376903592028565,0.054892625710827,0.89237138991465
9.66,2,-0.0616880804874823,0.000152592547379986,0.0376903592028565,-0.142674031800287,0.000152592547379986,0.0518611204362112,-0.0397249265012563,-0.156509089429406,-0.0043234555090996,-0.0411592964466282,0.0990325632496109,-0.000152592547379986,-0.23958047222307,-0.177688935005748,0.0376903592028565,0.0518204290902432,0.907172867010509
9.69,2,-0.0619017100538143,0.000152592547379986,0.0376191493474125,-0.141198970508947,0.00735496078371532,0.0500707012136194,-0.0393180130415764,-0.154881435590686,-0.00452691223893958,-0.022176783552558,0.0854213080233161,-0.00133264158045188,-0.231849116489151,-0.169693085523036,0.0376903592028565,0.0476495661285236,0.911180964588356
9.72,2,-0.0620644754376863,0.000152592547379986,0.0376903592028565,-0.139500106814783,0.00425224565365561,0.0470391959390037,-0.0380972726625365,-0.154881435590686,-0.00473036896877956,-0.0101524908190151,0.0815149388103885,-0.00278735719880774,-0.224778995127211,-0.162500890123193,0.0376903592028565,0.0493382569861955,0.912767927081108
9.75,2,-0.0622475864945423,0.000152592547379986,0.0379955442976165,-0.135959959715568,0.0121158482619709,0.0445061596524959,-0.0418001851456242,-0.154515213476974,-0.00574765261797947,-0.00312306080304371,0.087364319793288,-0.0075991088595233,-0.219061861018708,-0.15663116346731,0.0381176183355205,0.0413932716859442,0.912177902564572
9.78,2,-0.0623900062054303,0.000152592547379986,0.0381888281909645,-0.132775861893572,0.0102643920204271,0.0423393454797001,-0.0378531245867285,-0.156183558661662,-0.00668355357524339,-0.00282804854477574,0.0942309844253873,-0.00908434298735517,-0.214789269692068,-0.152175461083814,0.0381481368449965,0.043641468550676,0.91567735831782
9.81,2,-0.0625324259163182,0.000152592547379986,0.0380972726625365,-0.127435122735272,0.0208644876450901,0.0389517909278644,-0.0388297168899604,-0.156509089429406,-0.00700908434298736,0.00102745648569191,0.11307107760857,-0.011129083122247,-0.207261370687989,-0.144525488041831,0.0381481368449965,0.0352895697907448,0.911374248481704
9.84,2,-0.0625934629352702,0.000152592547379986,0.0381786553544725,-0.121575568915881,0.0199387595243182,0.0354828536840927,-0.0418001851456242,-0.156956694235054,-0.00407930743329162,0.0076601458784753,0.127709789320556,-0.0133467614775028,-0.203466902676473,-0.140659810174871,0.0381481368449965,0.0339772738832769,0.915148370820236
9.87,2,-0.0627155369731742,0.000152592547379986,0.0381277911720125,-0.116133101392661,0.0191045869319742,0.032522558264921,-0.0365103101697846,-0.158869187495549,-0.00509659108249153,0.0223904131188899,0.144678080589211,-0.0043132826726076,-0.196925768812118,-0.134027120782088,0.0381481368449965,0.0310271513005971,0.913398642943612
9.9,2,-0.0626138086082542,0.000152592547379986,0.0381990010274565,-0.109225745414594,0.0237332275358338,0.0300098676513972,-0.0346791996012248,-0.158747113457645,-0.00497451704458754,0.0283923866491694,0.163874223049613,0.000986765139723909,-0.187892290007223,-0.125024160486669,0.0381481368449965,0.0276497695852535,0.909054841761528
9.93,2,-0.0626850184636982,0.000152592547379986,0.0381888281909645,-0.101168858912931,0.0301217688528092,0.0250658691162857,-0.0334177678762169,-0.157078768272958,-0.00521866512039552,0.0476800846379996,0.182938118635619,0.0114037497075309,-0.17729219438256,-0.114424064862005,0.0381481368449965,0.021444339325134,0.897935931475773
9.96,2,-0.0604266487624744,0.00752789900407931,0.0350352488784448,-0.0916572567929116,0.0314442375967691,0.0198777225053662,-0.0344757428713848,-0.15683462019715,-0.00672424492121138,0.0738039287494532,0.211340678121281,0.0404471978921883,-0.167271950437941,-0.106601153599658,0.0335805332600889,0.0159713532924385,0.886633910133163
9.99,2,-0.0585243283384706,0.00735496078371532,0.032980335907061,-0.0849838760541602,0.0207017222612181,0.0182297229936623,-0.0256864121422976,-0.159276100955229,-0.0043234555090996,0.0920539974160995,0.210069073559781,0.0598874884283985,-0.156153040152186,-0.097364218064923,0.032502212591937,0.0197861669769382,0.861893571784621
10.02,2,-0.0538143050426751,0.0138859218115787,0.0280159916989654,-0.0770083722444329,0.0314544104332611,0.0177515996785384,-0.0224717958108259,-0.159031952879421,-0.00945056510106713,0.0987680695008189,0.219214453566088,0.0555538600828069,-0.142806278674683,-0.0887579983926918,0.0267749056469415,0.0125634530676188,0.815963215023245
10.05,2,-0.0475071464176356,0.0196640929390342,0.0224819686473179,-0.0680562761314737,0.0263374736777856,0.00573747978148747,-0.032726014994761,-0.162246569210893,-0.0226752525406659,0.0875982950326039,0.215196183151748,0.0958993296100752,-0.129805393637908,-0.0820744448174485,0.0201523890906501,0.00929797255368714,0.682943205053865
10.08,2,-0.0396435438093204,0.0244656717632578,0.0147302672404146,-0.0630003763949502,0.0160832544938505,0.0087384665466272,-0.0210069073559781,-0.160863063447981,-0.0524613177892392,0.0717388429415774,0.228247932370983,0.407411928668071,-0.116570533361817,-0.0766828414766889,0.0121463667714469,0.0141911069063387,0.505956195766065
10.11,2,-0.032929471724601,0.0197963398134302,0.011007009084343,-0.0562557858007548,0.0247912025310017,0.010386466058331,-0.0173853775648264,-0.160049236528621,-0.054007588936023,0.0569373658457188,0.226640624205247,0.874385814996796,-0.102827031261127,-0.0696534114607176,0.0103254290393791,0.00739565212968332,0.329274371573026
10.14,1,-0.0263476465142776,0.0188807845291503,0.00891140476699118,-0.0501622567420474,0.0188604388561663,0.00885036774803919,-0.0347198909471928,-0.164850815352845,-0.0498570716472874,0.0502232937609994,0.217759737947732,1.21773939227475,-0.0894294056011638,-0.0628681295205542,0.00685649179560737,0.00679545477665537,0.165176346120589
10.17,1,-0.0242113508509578,0.00473036896877956,0.00853500981678721,-0.0468866033916237,0.00859604683573921,0.00894192327646718,-0.0462762332021037,-0.170547603788364,-0.0385855688141524,0.0521357870214952,0.188197475101983,1.3462223171687,-0.0773033845027009,-0.0528682312489191,0.0115156509089429,0.0114647867264829,0.0489008250170395
10.2,1,-0.022125919370098,0.00344859157078768,0.0133976256599628,-0.0462355418561358,0.000295012258267973,0.0118208360037029,-0.0372427543972086,-0.171524196091596,-0.0346385082552568,0.0903246152124597,0.189580980864895,1.12208421074048,-0.0662455112358979,-0.043885616626484,0.0128788109988708,0.0170395011240984,0.0115156509089429
10.23,1,-0.0188197475101983,0.0054831588691875,0.0087486393831192,-0.0441806288847519,0.00794498530025127,0.0139367859940387,-0.032603940956857,-0.161676890367341,-0.0318714967294331,0.128320159510076,0.221137119663076,0.701691742708619,-0.0573442793053987,-0.0383210750653605,0.00816878770307525,0.0125532802311268,0.00366222113711966
10.26,1,-0.0151371807000946,0.00274666585283975,0.00958281197546312,-0.0424715923540961,0.0076296273689993,0.0142114525793227,-0.054577267779575,-0.142063661610767,-0.032197027497177,0.1752067629017,0.152144942574338,0.378856776635029,-0.0686056093020417,-0.0532446261991231,0.00912503433332316,0.0135909095533107,0.00204474013489181
10.29,1,-0.00747703482161931,0.0133671071504868,0.000101728364919991,-0.0398266548661763,0.00827051606799524,0.0135603910438348,-0.0460320851262958,-0.142674031800287,-0.0289417198197373,0.189764091921751,0.00225836970122379,0.255480615660064,-0.0775577054150009,-0.0698670410270496,-0.00160730816573585,0.0126244900865708,0.00170903653065584
10.32,1,-0.00496434420809554,0.000396740623187963,0.00227871537420779,-0.0372325815607166,0.00807723217464726,0.0129195023448388,-0.042980234178696,-0.144098228909167,-0.0273140659810175,0.181320637633391,-0.0801009145380006,0.318257189652191,-0.0920641702525915,-0.086886196478164,0.00314340647602771,0.0129805393637908,0.00167851802117985
10.35,1,-0.00156661681976786,0.00191249326049582,0.000162765383871985,-0.0360220140181687,0.00584938098289946,0.0148319956053346,-0.0391145563117364,-0.146946623126926,-0.0197861669769382,0.157882422355825,-0.131931516464736,0.415580716371146,-0.115746533605965,-0.11393576871039,6.10370189519944e-05,0.0166732790103865,0.00167851802117985
10.38,1,0.000345876440727968,0.000183111056855983,0.000152592547379986,-0.0345164342173528,0.00232957955666779,0.0137028107547227,-0.032278410189113,-0.149754325998718,-0.0127872554704428,0.125044506159652,-0.179926959033987,0.483464054282256,-0.138279366435743,-0.138472650329091,0.000152592547379986,0.0162867112236905,0.00167851802117985
10.41,1,0.00174972787662384,0.000152592547379986,0.000152592547379986,-0.033010854416537,0.00774152857041129,0.0166427605009105,-0.0276395967487615,-0.153416547135838,-0.00745668914863531,0.0918607135227515,-0.20024211350851,0.526169621875668,-0.152724794254382,-0.154362620929594,-0.000488296151615955,0.0146387117119867,0.00167851802117985
10.44,1,0.00282804854477574,0.000152592547379986,0.000152592547379986,-0.0309762871181372,0.0075991088595233,0.0156254768517106,-0.0251981159906817,-0.155735953856014,-0.00481175166071556,0.0516780093793552,-0.234687337870418,0.546830652790918,-0.164433729056673,-0.167180394909513,-0.0010986663411359,0.0145471561835587,0.00167851802117985
10.47,1,0.00200404878892382,-0.0054628131962035,0.00130212307097588,-0.0299895219784132,0.000783308409883928,0.0145776746930347,-0.0196640929390342,-0.163182470168157,-0.00448622089297159,0.0138859218115787,-0.275887325663015,0.584053061515142,-0.1744438001648,-0.176366466261788,0.00127160456149988,0.0186875006358023,0.00167851802117985
10.5,1,0.00147506129133986,-0.000712098554439934,0.000162765383871985,-0.0294401888078453,0.00485244300668355,0.0187994018372143,-0.0175888342946664,-0.164769432660909,-0.00814844203009125,-0.0280973743909014,-0.347707551296528,0.639962970875169,-0.186274809004995,-0.187637969094923,-0.000406913459679963,0.0191249326049582,0.00167851802117985
10.53,1,-0.00197353027944782,-0.00281787570828374,0.00270597450687175,-0.0275989054027935,0.00391654204941964,0.0163070568966745,0.0257067578152816,-0.172989084546444,-0.0152287362285226,-0.0608030437126784,-0.274361400189215,0.740348521378216,-0.199153620003866,-0.196976632994578,0.00233975239315978,0.0157780693990905,0.00167851802117985
10.56,1,-0.00684631895911537,-0.00733461511073133,0.00611387473169144,-0.0254422640664897,0.00735496078371532,0.0160527359843745,0.0121972309539069,-0.163263852860093,-0.0145776746930347,-0.123803420107629,-0.171788689840388,0.818699708039593,-0.204555396181117,-0.19749544765567,0.00806705933815526,0.0136621194087547,0.00167851802117985
10.59,1,-0.0087588122196112,-0.000396740623187963,0.00641905982645141,-0.0255134739219337,0.000152592547379986,0.0171615751620024,0.0209051789910581,-0.155898719239886,-0.0208034506261381,-0.1343933428958,-0.115380311492253,0.792942086041851,-0.173080640074872,-0.164108198288929,0.00564592425305948,0.0201116977446821,0.00167851802117985
10.62,1,-0.010559404278695,0.000152592547379986,0.00592059083834346,-0.0245572272916857,0.0064699240089114,0.0194199448632262,0.0196844386120182,-0.152806176946318,-0.0270699179052095,-0.144413586840419,-0.0875270851771599,0.753461307616403,-0.139449242632323,-0.128686381623788,0.00625629444257942,0.0169479455956704,0.00167851802117985
10.65,1,-0.0120242927335429,0.000152592547379986,0.00676493626717938,-0.0231533758557899,0.00162765383871985,0.0161748100222785,0.0183009328491063,-0.150242622150334,-0.0309762871181372,-0.139947711620431,-0.0701722261218096,0.718975391908526,-0.108859523300882,-0.0966317738374991,0.00719219539984334,0.0174158960743024,0.00167851802117985
