time,Mode,Knee_Angle,Knee_Velocity,Knee_Current,Ankle_Angle,Ankle_Velocity,Ankle_Current,Acc_X,Acc_Y,Acc_Z,Gyro_X,Gyro_Z,Gyro_Y,Shank_Angle,Thigh_Angle,Knee_Ref_Torque,Ankle_Ref_Torque,Filtered_Vertical_Load
0,1,0.0187587104912463,-0.0021973326822718,-0.010813725190995,-0.0188197475101983,0.00784325693533128,0.0126651814325388,-0.0304066082745852,-0.162327951902829,-0.000661234371979939,0.0468560848821477,-0.00256355479598376,-0.487818028300831,-0.0718609169794814,-0.0905178991058077,-0.010711996826075,0.0122989593188269,0.446740114546139
0.03,1,0.0169377727591784,-0.00591041800185146,-0.00752789900407931,-0.0191961424604022,-0.00280770287179174,0.0102949105299031,-0.0310169784641051,-0.154352448093102,-0.00237027090263578,0.100507624540951,-0.0594093651132745,-0.904863633126825,-0.0908230842005676,-0.107720165613778,-0.00605283771273944,0.02167831456445,0.331247901852474
0.06,1,0.0166529333374025,-0.000183111056855983,-0.00817896053956725,-0.0171310566525264,0.0032349620044557,0.0054424675232195,-0.0198268583229062,-0.151626127913246,-0.0115665150914029,0.107669301431318,-0.104871771396018,-1.13480025635548,-0.101494389680675,-0.118076113162633,-0.00945056510106713,0.0118208360037029,0.233212276579079
0.09,1,0.0154525386313466,0.000152592547379986,-0.00946073793755913,-0.0167037975198625,0.000152592547379986,0.0103050833663951,0.0143131809442427,-0.157200842310862,-0.00509659108249153,0.0836614073102003,-0.0907010101626637,-0.912106692709128,-0.0937223426007874,-0.109113844213182,-0.00904365164138717,0.0155644398327586,0.198014262316762
0.12,1,0.0132145146031068,0.000152592547379986,-0.00850449130731122,-0.0163884395886105,0.000152592547379986,0.0135502182073428,0.0168360443942585,-0.160008545182653,0.00263476465142776,0.011251157160151,-0.0225328328297779,-0.248949654632201,-0.0701823989583015,-0.0833358765424563,-0.00781273842585528,0.0152592547379986,0.202683594266589
0.15,1,0.010742515335551,0.000152592547379986,-0.00700908434298736,-0.0160730816573585,0.000152592547379986,0.0147506129133986,-0.0145369833470667,-0.159560940377005,0.00377412233853165,-0.00281787570828374,0.0179855749178543,0.043234555090996,-0.0599485254473505,-0.0706198309274575,-0.00620543026011943,0.0148930326242866,0.225216427096367
0.18,1,0.00898261462243517,0.000152592547379986,-0.00574765261797947,-0.0158594520910265,0.000152592547379986,0.0147607857498906,-0.0138045391196427,-0.159357483647165,-0.00200404878892382,0.0075787631865393,0.0264697205521816,-0.0414136173589282,-0.0635090182195502,-0.0724204229865413,-0.00509659108249153,0.0148014770958586,0.263283181249428
0.21,1,0.00842310861537523,0.000152592547379986,-0.00488296151615955,-0.0155644398327586,0.000152592547379986,0.0147913042593666,-0.0116885891293069,-0.158869187495549,0.00381481368449965,0.0190232042400382,0.0366222113711966,0.0158899706005025,-0.0616473891415143,-0.0699789422284616,-0.00473036896877956,0.0144759463281147,0.310098574785607
0.24,1,0.00906399731437117,0.000152592547379986,-0.00463881344035157,-0.0152999460839666,0.000152592547379986,0.0145064648375907,-0.00725323241879533,-0.158380891343933,0.000600197353027945,0.032481866918953,0.02208522802413,0.0293994974618773,-0.0592160812199265,-0.0681783501693777,-0.00494399853511155,0.0141911069063387,0.372203741569262
0.27,1,0.010386466058331,0.000152592547379986,-0.00502538122704754,-0.0152592547379986,0.000152592547379986,0.0143030081077507,-0.00582903530991546,-0.157770521154413,0.00125125888851588,0.0483311461734876,-0.00911486149683116,0.0427259132663961,-0.054648477635019,-0.064953561001414,-0.00570696127201147,0.0141911069063387,0.445010732342499
0.3,1,0.0115766879278949,0.000152592547379986,-0.00596128218431145,-0.0153202917569506,0.000152592547379986,0.0142419710887987,-0.0128686381623788,-0.161758273059277,0.0010884935046439,0.0627562283191422,-0.0054017761772515,0.064841659800002,-0.0553910946989349,-0.0668863999348938,-0.00640888698995941,0.0141911069063387,0.528682312489191
0.33,1,0.0127669097974588,0.000152592547379986,-0.00671407208471938,-0.0155339213232826,0.000152592547379986,0.0142521439252907,-0.0116478977833389,-0.163060396130253,-0.0043234555090996,0.0585548468479466,-0.00261441897844376,0.0606097598193304,-0.0573341064689067,-0.0700399792474136,-0.00725323241879533,0.0141911069063387,0.607318338572344
0.36,1,0.0138757489750867,0.000152592547379986,-0.00747703482161931,-0.0157170323801386,0.000152592547379986,0.0143233537807347,-0.0102237006744591,-0.162572099978637,-0.00416069012522762,0.0396130252998444,-0.010996836247851,0.0448622089297159,-0.0577410199285867,-0.0715353862117374,-0.00790429395428327,0.0147607857498906,0.655761385947244
0.39,1,0.0147607857498906,0.000152592547379986,-0.00813826919359925,-0.0157170323801386,0.000152592547379986,0.0146081932025107,-0.011240984323659,-0.159479557685069,7.12098554439934e-05,0.0453098137353638,-0.0138655761385947,0.0484532202113915,-0.0584938098289946,-0.0731528672139653,-0.00839259010589923,0.0148014770958586,0.677297280800806
0.42,1,0.0154423657948546,0.000152592547379986,-0.00860621967223121,-0.0157170323801386,0.000152592547379986,0.0146997487309386,-0.0156763410341706,-0.160537532680237,-0.00375377666554765,0.053763440860215,0.00609352905870744,0.0556962797936949,-0.0608945992411064,-0.076255582344025,-0.00888088625751518,0.0148014770958586,0.69909766940316
0.45,1,0.0160425631478825,0.000152592547379986,-0.00907417015086317,-0.0157170323801386,0.000152592547379986,0.0147200944039226,-0.0157170323801386,-0.161798964405245,-0.0118513545131789,0.0231330301828059,0.0368053224280526,0.022247993408002,-0.0638040304778181,-0.0797448652607807,-0.00920641702525915,0.0148014770958586,0.722413810642822
0.48,1,0.0166275012461725,0.000152592547379986,-0.00936918240913114,-0.0142724895982747,0.0054678996144495,0.010798465936257,-0.0114444410534989,-0.161208939888709,-0.00428276416313161,0.00849940488906522,0.0381888281909645,0.0032553076774397,-0.0625273394980723,-0.0790785444705547,-0.00961333048493912,0.00827051606799524,0.733334350616982
0.51,1,0.0173497726371044,0.000152592547379986,-0.0097913551235491,-0.0148676005330566,0.000376394950203965,0.00897244178594317,-0.00888088625751518,-0.160985137485885,-0.00501520839055554,0.00856552832626321,0.0388907539089124,0.0043488876003296,-0.0593279824213385,-0.0765658538570309,-0.0100558488723411,0.0174108096560564,0.735552028972238
0.54,1,0.0179550564083783,0.000152592547379986,-0.0101982685832291,-0.0130466628009888,0.00280261645354574,0.00514236884670553,-0.0114647867264829,-0.160802026429029,-0.00729392376476333,-0.00508641824599953,0.0447808262377799,-0.00311797438479771,-0.0567847732983388,-0.0746584470147811,-0.010483108005005,0.00839767652414523,0.733069856868191
0.57,1,0.0185501673431603,0.000152592547379986,-0.010610268461155,-0.0128076011434268,0.000152592547379986,0.00790938037252927,-0.00965402183090711,-0.160354421623381,-0.00497451704458754,-0.0197912533951842,0.0492263557847835,-0.0118310088401949,-0.054048280281991,-0.0725424970244453,-0.010757774590289,0.0117496261482589,0.726381216874701
0.6,1,0.0191147597684662,0.000152592547379986,-0.010996836247851,-0.0119988606423129,0.00147506129133986,0.0102694784386731,-0.0097964415417951,-0.158767459130629,-0.00383515935748365,-0.021993672495702,0.0549689219845169,-0.0148269091870886,-0.0512660095014293,-0.0702688680684835,-0.011032441175573,0.0114444410534989,0.721910255236468
0.63,1,0.0197353027944782,0.000152592547379986,-0.011368144779809,-0.00930305897193314,0.00662251655629139,0.00688701030508337,-0.00965402183090711,-0.159723705760877,-0.00300098676513972,-0.0195216732281462,0.0565609708955148,-0.0185654265978983,-0.0484176152836695,-0.0680715353862117,-0.0114444410534989,0.0033061718598997,0.71762240465509
0.66,1,0.0203151544745221,0.000152592547379986,-0.0116580706198309,-0.0086265653452152,0.000152592547379986,0.00580868963693147,-0.00780256558936328,-0.160374767296365,-0.00350962858973968,-0.0226498204494359,0.0503148492894274,-0.021225623340556,-0.0454827519557278,-0.065711437320068,-0.0119530828780989,0.00816370128482925,0.71528265226193
0.69,1,0.0208492283903521,0.000152592547379986,-0.0119174779503769,-0.00767031871496729,0.000152592547379986,0.00669881282998138,-0.00662251655629139,-0.160374767296365,-0.00291960407320373,-0.0271309549241615,0.043081962543616,-0.0247505111850337,-0.0419731233659881,-0.0627155369731742,-0.0122226630451369,0.00726849167353333,0.711778110090437
0.72,1,0.02137312946969,0.000152592547379986,-0.0122887864823349,-0.00560523290709148,0.00675984984893338,0.00674459059419538,-0.00576799829096347,-0.160313730277413,-0.00194301176997182,-0.022039450259916,0.0384075441755425,-0.0226294747764519,-0.0388297168899604,-0.0601062044129765,-0.0125125888851588,0.00204982655313781,0.712139245785902
0.75,1,0.021927549058504,0.000152592547379986,-0.0125380209763888,-0.00339264097008169,0.00137841934466587,0.00146997487309386,-0.00715150405387534,-0.159683014414909,-0.00289925840021973,-0.0208187098808761,0.0320393485315511,-0.0197047842850022,-0.0366222113711966,-0.0584632913195186,-0.0128940702536088,0.00148523412783186,0.709087394838303
0.78,1,0.0223395489364299,0.000152592547379986,-0.0129245887630848,-0.00231432030192979,0.00148014770958586,0.0021515549180578,-0.00666320790225939,-0.159967853836685,-0.00239061657561978,-0.0206254259875281,0.0297758924120813,-0.0196640929390342,-0.0348673970763268,-0.0571459089938047,-0.0129703665272988,0.00252794986826177,0.700608335622222
0.81,1,0.0226345611946979,0.000152592547379986,-0.0131890825118768,0.000350962858973968,0.00665812148401339,-0.00167343160293385,-0.00686666463209937,-0.159866125471765,-0.00167851802117985,-0.0167292296110925,0.0280922879726554,-0.0178024638609984,-0.0336975208797469,-0.0562608722190008,-0.0133823664052248,-0.0054475539414655,0.689504684591205
0.84,1,0.0228888821069979,0.000152592547379986,-0.0133823664052248,0.000940987375509913,0.000152592547379986,0.000147506129133986,-0.00462864060385957,-0.159499903358053,-0.00226854253771579,-0.0165105136265145,0.0269987080497655,-0.0130110578732668,-0.0316120893988871,-0.054424675232195,-0.0134281441694388,-0.000350962858973968,0.67884355194759
0.87,1,0.0231075980915759,0.000152592547379986,-0.0135044404431288,0.00160730816573585,0.000152592547379986,0.000152592547379986,-0.00450656656595559,-0.159703360087893,-0.00202439446190781,-0.0163019704784285,0.0200659199804682,-0.0100660217088331,-0.0295673492639953,-0.0525986510818812,-0.0134281441694388,-0.00086977752006592,0.671473331909136
0.9,1,0.0232907091484319,0.000152592547379986,-0.0136061688080487,0.00224311044648579,0.000152592547379986,0.000152592547379986,-0.0043641468550676,-0.159744051433861,-0.000885036774803919,-0.0148218227688426,0.0157272052166306,-0.00779747917111728,-0.0277464115319274,-0.0509557379884233,-0.0136570329905087,-0.00141911069063387,0.662668741925311
0.93,1,0.0234941658782718,0.000152592547379986,-0.0139927365947447,0.00426241849014761,0.00523392437513352,-0.00278735719880774,-0.00530004781233151,-0.159805088452813,-0.000823999755851924,-0.0120751569160029,0.0118971322773929,-0.0054628131962035,-0.0269274981943215,-0.0503504542171494,-0.0138859218115787,-0.00881984923856319,0.652984201584928
0.96,1,0.0235755485702078,0.000152592547379986,-0.0138452304656107,0.00392162846766564,0.00168360443942585,-0.00302133243812372,-0.00348928291675568,-0.159906816817733,-0.000681580044963937,-0.00643940549943541,0.010518712932727,-0.00101728364919991,-0.0260272021647796,-0.0495264544612974,-0.0138859218115787,-0.00146997487309386,0.64757733898943
0.99,1,0.0236518448438978,0.000152592547379986,-0.0140079958494827,0.00534073915829951,0.00137333292641987,-0.00532547990356151,-0.00497451704458754,-0.159621977395957,-0.00100711081270791,-0.00178533280434584,0.010844243700471,0.00154627114678386,-0.0256101158686076,-0.0492161829482915,-0.0138859218115787,-0.0065157017731254,0.634383170059308
1.02,1,0.0236518448438978,0.000152592547379986,-0.0138706625568407,0.0054272082684815,0.000152592547379986,-0.00536617124952951,-0.0043438011820836,-0.159825434125797,-0.000925728120771915,-0.00010681478316599,0.00776696066164129,-0.000717184972685934,-0.0248827580594297,-0.0485346029033275,-0.0138859218115787,-0.00473036896877956,0.621641692353079
1.05,1,0.0236518448438978,0.000152592547379986,-0.0139316995757927,0.00549333170567949,0.000152592547379986,-0.00498468988107954,-0.00344859157078768,-0.159906816817733,-0.000946073793755913,0.000635802280749942,0.00726340525528733,0.00155135756502986,-0.0238909065014598,-0.0475122328358816,-0.0138859218115787,-0.00473036896877956,0.607252215135146
1.08,1,0.0236518448438978,0.000152592547379986,-0.0139164403210547,0.00549333170567949,0.000152592547379986,-0.00492873928037355,-0.00306202378409172,-0.158991261533453,-0.00121056754254789,0.00204474013489181,0.000289925840021973,0.0032298755862097,-0.0228329315062919,-0.0463983072400077,-0.0138859218115787,-0.00473036896877956,0.601148513239947
1.11,1,0.0235958942431918,0.000152592547379986,-0.0139520452487767,0.00549333170567949,0.000152592547379986,-0.00472528255053356,-0.00452691223893958,-0.159967853836685,-0.000356049277219967,0.00243639433983378,-0.00525427004811752,0.00243639433983378,-0.0228329315062919,-0.0463728751487777,-0.0138859218115787,-0.00473036896877956,0.599841303750725
1.14,1,0.0234992522965178,0.000152592547379986,-0.0139215267393007,0.00549333170567949,0.000152592547379986,-0.00472528255053356,-0.00442518387401959,-0.159866125471765,-0.000356049277219967,0.00455234433016958,-0.00144962920010987,0.00174972787662384,-0.0234789066235338,-0.0468611713003937,-0.0138859218115787,-0.00473036896877956,0.599841303750725
1.17,1,0.0234127831863358,0.000152592547379986,-0.0138808353933327,0.00549333170567949,0.000152592547379986,-0.00475071464176356,-0.00442518387401959,-0.159357483647165,-0.00086469110181992,0.00372325815607166,-0.00201930804366181,0.00289417198197373,-0.0236823633533738,-0.0470137638477737,-0.0138859218115787,-0.00473036896877956,0.601596118045595
1.2,1,0.0233466597491379,0.000152592547379986,-0.0139978230129907,0.00549333170567949,0.000152592547379986,-0.00459303567613758,-0.00468967762281157,-0.159723705760877,-0.000986765139723909,0.00368765322834966,-0.00138859218115787,0.0010427157404299,-0.0241808323414818,-0.0474257637256996,-0.0138859218115787,-0.00473036896877956,0.602323475854773
1.23,1,0.0233466597491379,0.000152592547379986,-0.0138655761385947,0.0053763440860215,0.000152592547379986,-0.00473036896877956,-0.00527970213934751,-0.159215063936277,-0.00086469110181992,0.00420646788944161,-0.000605283771273944,0.0010986663411359,-0.0246843877478357,-0.0479038870408236,-0.0138859218115787,-0.00446587521998759,0.602969450972015
1.26,1,0.0233466597491379,0.000152592547379986,-0.0138655761385947,0.00534073915829951,0.000152592547379986,-0.00445570238349559,-0.00446587521998759,-0.159438866339101,-0.00086469110181992,0.00363678904588967,5.08641824599953e-05,0.00021362956633198,-0.0250353506068097,-0.0482701091545356,-0.0138859218115787,-0.00411999877925962,0.604714092430392
1.29,1,0.0233466597491379,0.000152592547379986,-0.0140079958494827,0.00534073915829951,0.000152592547379986,-0.0043946653645436,-0.00452691223893958,-0.159886471144749,-0.000661234371979939,0.00349436933500168,-0.00138350576291187,0.000518814661091952,-0.0251014740440077,-0.0483870967741935,-0.0138859218115787,-0.00411999877925962,0.60907823928546
1.32,1,0.0233466597491379,0.000152592547379986,-0.0140232551042207,0.00534073915829951,0.000152592547379986,-0.00423698639891761,-0.00493382569861955,-0.160496841334269,-0.000823999755851924,0.00413017161575162,-0.00273140659810175,-0.00178533280434584,-0.0254626097394737,-0.0487024547054455,-0.0138859218115787,-0.00411999877925962,0.613203324482966
1.35,1,0.0234026103498438,0.000152592547379986,-0.0139367859940387,0.00534073915829951,0.000152592547379986,-0.00417594937996562,-0.0043844925280516,-0.160557878353221,-0.00123091321553189,0.00272123376160975,-0.00335703604235969,-0.000508641824599953,-0.0258542639444156,-0.0492009236935535,-0.0138859218115787,-0.00411999877925962,0.618060853907895
1.38,1,0.0236060670796838,0.000152592547379986,-0.0139622180852687,0.00534073915829951,0.000152592547379986,-0.00420646788944161,-0.0054628131962035,-0.159601631722973,-0.00169886369416384,0.0054017761772515,-7.12098554439934e-05,-0.0010783206681519,-0.0259559923093356,-0.0494705038605915,-0.0138859218115787,-0.00411999877925962,0.622592852565081
1.41,1,0.0237993509730318,0.000152592547379986,-0.0138503168838567,0.00534073915829951,0.000152592547379986,-0.00416577654347362,-0.0054628131962035,-0.159744051433861,-0.000661234371979939,0.00768049155145929,0.00242113508509578,-0.00292977690969573,-0.0267443871374655,-0.0504572690003154,-0.0138859218115787,-0.00411999877925962,0.623691518906217
1.44,1,0.0240282397941018,0.000152592547379986,-0.0140283415224667,0.00534073915829951,0.000152592547379986,-0.00416069012522762,-0.00310271513005971,-0.160374767296365,-0.00167851802117985,0.0065106153548794,-0.000101728364919991,0.000742617063915932,-0.0260322885830256,-0.0499588000122074,-0.0138859218115787,-0.00411999877925962,0.623187963499863
1.47,1,0.0242011780144658,0.000152592547379986,-0.0142317982523067,0.0054729860326955,0.000152592547379986,-0.00417086296171962,-0.00371308531957966,-0.160171310566525,-0.00127160456149988,0.00527970213934751,-0.00987782423373109,0.000946073793755913,-0.0253913998840297,-0.0494806766970834,-0.0144962920010987,-0.00468967762281157,0.625456506037578
1.5,1,0.0243741162348298,0.000152592547379986,-0.0143945636361787,0.00549333170567949,0.000152592547379986,-0.00452691223893958,-0.00493382569861955,-0.160781680756045,-0.00188197475101983,0.00498468988107954,-0.0127567369609668,0.000396740623187963,-0.0260526342560096,-0.0503555406353954,-0.0144962920010987,-0.00473036896877956,0.626860357473474
1.53,1,0.0244249804172898,0.000152592547379986,-0.0143335266172267,0.00536108483128351,0.000152592547379986,-0.00456760358490758,-0.00574765261797947,-0.159805088452813,-0.00196335744295582,0.00382498652099165,-0.0116478977833389,-6.10370189519944e-05,-0.0272937203080335,-0.0516881822158472,-0.0144962920010987,-0.00473036896877956,0.62577186396883
1.56,1,0.0245674001281777,0.000152592547379986,-0.0143945636361787,0.00523901079337952,0.000152592547379986,-0.00451673940244758,-0.00627664011556342,-0.159967853836685,-0.00196335744295582,0.00370291248308766,-0.00732444227423933,-0.0010376293221839,-0.0284941150140894,-0.0529292682678711,-0.0144962920010987,-0.00411999877925962,0.620176803898231
1.59,1,0.0245979186376537,0.000152592547379986,-0.0144759463281147,0.00518814661091952,0.000152592547379986,-0.0043336283455916,-0.00582903530991546,-0.160130619220557,-0.00123091321553189,0.00259407330545976,-0.00086469110181992,-0.00142419710887987,-0.0296538183741773,-0.054160181483403,-0.0144962920010987,-0.00411999877925962,0.619424013997823
1.62,1,0.0247199926755577,0.000152592547379986,-0.0144454278186387,0.00518814661091952,0.000152592547379986,-0.00419120863470361,-0.00521866512039552,-0.160863063447981,-0.000335703604235969,0.00240078941211178,0.00416069012522762,-0.0032349620044557,-0.0295419171727653,-0.054160181483403,-0.0144962920010987,-0.00411999877925962,0.626097394736574
1.65,1,0.0247606840215257,0.000152592547379986,-0.0144861191646067,0.00503555406353954,0.000152592547379986,-0.00420138147119561,-0.00595110934781945,-0.160252693258461,-0.00086469110181992,0.00487278867966755,0.00602231920326345,-0.0010986663411359,-0.0295826085187333,-0.054282255521307,-0.0144962920010987,-0.00411999877925962,0.624835963011567
1.68,1,0.0253100171920937,0.000925728120771915,-0.0146488845484787,0.00503555406353954,0.000152592547379986,-0.00419120863470361,-0.00513728242845953,-0.159805088452813,-0.000905382447787917,0.00687683746859137,0.00373343099256366,-0.00380464084800765,-0.0293994974618773,-0.054658650471511,-0.0148625141148106,-0.00411999877925962,0.622028260139775
1.71,1,0.0262662638223416,0.00296029541917173,-0.0181279946287423,0.00503555406353954,0.000152592547379986,-0.00418103579821162,-0.00428276416313161,-0.159398174993133,-0.00151575263730786,0.0117191076387829,0.00100711081270791,-0.00406913459679963,-0.0289925840021973,-0.0551978108055869,-0.0182398958301543,-0.00411999877925962,0.612709941913104
1.74,1,0.0270190537227495,0.00389619637643564,-0.0148523412783186,0.00503555406353954,0.000152592547379986,-0.00415051728873562,-0.00591041800185146,-0.160578224026205,-0.00159713532924385,0.0170293282876064,0.00136316008992787,-0.000559506007059949,-0.0283923866491694,-0.0553097120069989,-0.0167037975198625,-0.00411999877925962,0.610034485915708
1.77,1,0.0271716462701295,0.00155644398327586,-0.0184230068870103,0.00503555406353954,0.000152592547379986,-0.00424207281716361,-0.00440483820103559,-0.160008545182653,-0.0021668141727958,0.0163070568966745,-0.00587989949237546,0.0011393576871039,-0.0280363373719494,-0.0551266009501429,-0.0171819208349864,-0.00411999877925962,0.607715079195532
1.8,1,0.0267850784834335,0.000172938220363984,-0.0161951556952625,0.00503555406353954,0.000152592547379986,-0.00418103579821162,-0.00530004781233151,-0.159886471144749,-0.00293994974618773,0.0155034028138066,-0.00835189875993123,0.00223802402823979,-0.0287687815993734,-0.0554826502273629,-0.0159001434369945,-0.00411999877925962,0.60714540035198
1.83,1,0.0264697205521816,0.000152592547379986,-0.0159306619464705,0.00384533219397565,-0.00202439446190781,-0.00144454278186387,-0.00493382569861955,-0.160293384604429,-0.00224819686473179,0.0178838465529344,-0.0101016266365551,0.000610370189519944,-0.0291655222225613,-0.0555538600828069,-0.0157170323801386,-0.00021362956633198,0.601896216722109
1.86,1,0.0261340169479456,0.000152592547379986,-0.0153202917569506,0.00347911008026368,-0.00526952930285552,-0.00445570238349559,-0.00530004781233151,-0.159601631722973,-0.00310271513005971,0.0202439446190781,-0.0147506129133986,0.00143436994537187,-0.0301319416893012,-0.0561642302723268,-0.0154118472853786,-0.0010783206681519,0.601143426821701
1.89,1,0.0258390046896776,0.000152592547379986,-0.0154525386313466,0.00390636921292764,0.00645975117241941,-0.00087486393831192,-0.00517797377442752,-0.159723705760877,-0.00245165359457177,0.0235297708059938,-0.0143843907996867,0.00159713532924385,-0.0301014231798252,-0.0558692180140589,-0.0154118472853786,-0.00704977568895535,0.599759921058789
1.92,1,0.0254727825759657,0.000152592547379986,-0.0151371807000946,0.00365204830062766,-3.05185094759972e-05,0.0010579749951679,-0.00530004781233151,-0.160008545182653,-0.00228888821069979,0.0260221157465336,-0.0181992044841863,0.00450656656595559,-0.0312407808669291,-0.0566423535874508,-0.0150456251716666,-0.00191249326049582,0.599973550625121
1.95,1,0.0240791039765618,-0.00376394950203965,-0.0148116499323506,0.00291960407320373,-0.00606301054923144,-0.0043641468550676,-0.00582903530991546,-0.159601631722973,-0.00403861608732363,0.0280363373719494,-0.021688487400942,0.0065004425183874,-0.032939644561093,-0.0569577115187028,-0.0133162429680268,0.00043743196915596,0.597877946307769
1.98,1,0.0237027090263578,0.000559506007059949,-0.011261329996643,0.00244148075807978,7.12098554439934e-05,1.01728364919991e-05,-0.00676493626717938,-0.160293384604429,-0.00371308531957966,0.0292062135685293,-0.0145268105105747,0.00741599780266732,-0.033061718598997,-0.0566525264239428,-0.0132552059490748,-0.00146488845484787,0.596799625639617
2.01,1,0.0222785119174779,-0.00462864060385957,-0.0133772799869788,0.00234992522965178,0.000152592547379986,0.000152592547379986,-0.00635802280749942,-0.159560940377005,-0.0033061718598997,0.0303455712556332,-0.0140792057049267,0.00417086296171962,-0.0342315947955768,-0.0564897610400708,-0.010956144901883,-0.00167851802117985,0.596708070111189
2.04,1,0.0222785119174779,-0.000264493748791976,-0.0118513545131789,0.00228888821069979,0.000152592547379986,0.000152592547379986,-0.00839259010589923,-0.159967853836685,-0.00371308531957966,0.0296029541917173,-0.00300098676513972,0.00696839299701936,-0.0359508041627247,-0.0581174148787907,-0.0127872554704428,-0.00167851802117985,0.596911526841029
2.07,1,0.02218695638905,0.000152592547379986,-0.0126346629230628,0.0021973326822718,0.000152592547379986,0.000152592547379986,-0.00859604683573921,-0.159357483647165,-0.00513728242845953,0.0279346090070294,0.00442518387401959,0.00444552954700359,-0.0373241370891446,-0.0594297107862585,-0.0129703665272988,-0.00158696249275185,0.598905402793461
2.1,1,0.021922462640258,0.000152592547379986,-0.0129296751813308,0.0022075055187638,0.000152592547379986,0.000152592547379986,-0.00676493626717938,-0.160171310566525,-0.00607318338572344,0.0265307575711336,0.0121667124444309,0.0054424675232195,-0.0375581123284605,-0.0593890194402905,-0.0129703665272988,-0.00140385143589587,0.602710043641469
2.13,1,0.021607104709006,0.000152592547379986,-0.0128991566718548,0.00236009806614378,0.000152592547379986,0.000152592547379986,-0.00692770165105136,-0.160415458642333,-0.00607318338572344,0.0242316965239418,0.02213609220659,0.00359101128167567,-0.0365611743522446,-0.0580868963693147,-0.0127262184514908,-0.00167851802117985,0.608294930875576
2.16,1,0.021352783796706,0.000152592547379986,-0.0125227617216508,0.00366222113711966,0.00572730694499547,-0.00140385143589587,-0.00709046703492335,-0.160781680756045,-0.00595110934781945,0.0206406852422661,0.0333363851842809,0.00181076489557583,-0.0351369772433648,-0.0564287240211188,-0.0125125888851588,-0.00812809635710725,0.617552212083295
2.19,1,0.0211086357208981,0.000152592547379986,-0.0124820703756829,0.00354014709921567,0.000956246630247912,-0.00281787570828374,-0.00603249203975545,-0.160130619220557,-0.00672424492121138,0.0163375754061505,0.0369579149754326,0.000752789900407931,-0.0336415702790409,-0.054668823308003,-0.0125125888851588,-0.000956246630247912,0.621183914710939
2.22,1,0.0207525864436781,0.000152592547379986,-0.0123803420107629,0.00511693675547553,0.00161748100222785,-0.00512710959196753,-0.00688701030508337,-0.160130619220557,-0.0065207881913714,0.0126244900865708,0.0398775190486363,-0.00267545599739575,-0.0320342621133051,-0.0526952930285551,-0.0122074037903989,-0.00641905982645141,0.625853246660766
2.25,1,0.0202948088015381,0.000152592547379986,-0.0119937742240669,0.00536108483128351,0.000152592547379986,-0.00497451704458754,-0.00468967762281157,-0.160252693258461,-0.00704977568895535,0.0120853297524949,0.0453199865718558,0.000315357931251971,-0.0293893246253853,-0.0496129235714794,-0.0120548112430189,-0.00428276416313161,0.630481887264626
2.28,1,0.0196539201025422,0.000152592547379986,-0.0117089348022909,0.00673441775770338,0.0065106153548794,-0.00509659108249153,-0.00395723339538764,-0.160212001912493,-0.00721254107282734,0.010610268461155,0.0531428978342031,0.00145471561835587,-0.0256253751233456,-0.0452182582069358,-0.0114444410534989,-0.00877915789259519,0.637633391318501
2.31,1,0.0189723400575783,0.000152592547379986,-0.0114953052359589,0.00916572567929116,0.00509659108249153,-0.00849431847081922,-0.00530004781233151,-0.159357483647165,-0.00672424492121138,0.010681478316599,0.0608742535681224,0.00145471561835587,-0.0227159438866339,-0.0416069012522762,-0.011078218939787,-0.010376293221839,0.651987263608712
2.34,1,0.0182653279213843,0.000152592547379986,-0.010895107882931,0.0115563422549109,0.00462864060385957,-0.010991749829605,-0.0032247891679637,-0.158828496149581,-0.00672424492121138,0.0139723909217607,0.0675578071433658,0.00599688711203345,-0.0193538214260282,-0.0375530259102145,-0.010696737571337,-0.0155491805780206,0.67403688670512
2.37,1,0.0175328836939604,0.000152592547379986,-0.010447503077283,0.0139622180852687,0.00783308409883928,-0.0129601936908068,-0.000457777642139958,-0.159560940377005,-0.00839259010589923,0.00918098493402916,0.06551815342672,0.00862147892696921,-0.0142674031800287,-0.0317036449273151,-0.0102694784386731,-0.0174718466750084,0.718497268593402
2.4,1,0.0166987111016165,0.000152592547379986,-0.0101677500737531,0.0174565874202704,0.00812300993886125,-0.0171208838160344,-0.0043234555090996,-0.160069582201605,-0.00564592425305948,0.011352885525071,0.0624561296426283,0.000635802280749942,-0.010767947426781,-0.0273801894182155,-0.0098117007965331,-0.0211544134851121,0.771004364146855
2.43,1,0.0157526373078605,0.000152592547379986,-0.00947599719229713,0.0191808832056642,0.00617491175064343,-0.0186315500350963,0.000640888698995941,-0.158360545670949,-0.00452691223893958,0.0263374736777856,0.0664438815474919,-0.000701925717947935,-0.00749229407635731,-0.0231584622740359,-0.00918607135227515,-0.0198777225053662,0.826720989613534
2.46,1,0.0147506129133986,0.000152592547379986,-0.00895209611295918,0.0250200913520717,0.0196030559200822,-0.0255439924314096,-0.00377412233853165,-0.161229285561693,-0.00641905982645141,0.0391145563117364,0.10526342560096,0.0075889360230313,-0.00208034506261381,-0.0167648345388145,-0.00854518265327921,-0.0345316934720908,0.89577929013947
2.49,1,0.0141707612333547,0.000152592547379986,-0.00823491114027324,0.032644632302825,0.0233822646768598,-0.0387635934527624,-0.00631733146153142,-0.163019704784285,-0.011179947304707,0.032120731223487,0.16996775210832,0.0127313048697368,0.000447604805647959,-0.0135654774620808,-0.00808740501113926,-0.0452843816441338,0.967731762647379
2.52,1,0.0148116499323506,0.000152592547379986,-0.00805180008341726,0.0402335683258563,0.0211391542303741,-0.0496739605904314,0.00310271513005971,-0.163772494684693,-0.0116682434563229,0.0125888851588488,0.155796990874966,-0.00193283893347982,0.00921658986175115,-0.00535091199479151,-0.00839259010589923,-0.0530309966327911,1.00827560248624
2.55,1,0.0160730816573585,0.000152592547379986,-0.0086672566911832,0.0442620115766879,0.011256243578397,-0.0473087761060417,0.0118920458591469,-0.160964791812901,-0.0115868607643869,-0.0124566382844529,0.10424614195176,-0.00808231859289326,0.0205186112043621,0.00458794925789158,-0.00922676269824315,-0.0463576158940397,1.02236498102766
2.58,1,0.0167597481205685,0.000152592547379986,-0.00935900957263914,0.0517136143070772,0.0237128818628498,-0.0622221544033123,-0.00306202378409172,-0.161575162002421,-0.0114444410534989,-0.0259051281268756,0.125013987650176,0.00032553076774397,0.0274157943459375,0.010737428917305,-0.00965910824915311,-0.0633055614897102,1.02848902859584
2.61,1,0.0171666615802484,0.000152592547379986,-0.00983713288776309,0.0578834396394747,0.0152541683197526,-0.06523840042319,-0.000376394950203965,-0.158889533168533,-0.00806705933815526,-0.0388551489811904,0.143233537807347,-0.00402335683258563,0.0292774234239733,0.0122074037903989,-0.0100711081270791,-0.064745017853328,1.02304656107262
2.64,1,0.0174820195115004,0.000152592547379986,-0.00994394767092909,0.0636209194209621,0.0186569821263263,-0.0695364238410596,0.00831120741396323,-0.160273038931445,-0.00751772616758731,-0.0500656147953734,0.15284178187404,-0.00359609769992167,0.0377005320393485,0.0202846359650461,-0.0100711081270791,-0.0698619546088036,1.02005574714398
2.67,1,0.0177770317697684,0.000152592547379986,-0.0101067130548011,0.0715862503941974,0.0259559923093356,-0.0816624449395225,0.00932849106316314,-0.162551754305653,-0.00711081270790735,-0.054221218502355,0.185394858648437,0.00300098676513972,0.0475173192541276,0.0298369294310333,-0.010361033967101,-0.0835037283445743,1.01921648813339
2.7,1,0.0183568834498123,0.000152592547379986,-0.010376293221839,0.0793939024018067,0.0228431043427839,-0.0878475295266579,0.010773033845027,-0.162307606229845,-0.00857570116275521,-0.0615253151036103,0.207378358307647,0.00349436933500168,0.0593839330220445,0.0410728273364462,-0.010635700552385,-0.0883103935870439,1.01904354991302
2.73,1,0.0192470066428622,0.000152592547379986,-0.010976490574867,0.086728517512538,0.02211066011536,-0.0936307870723594,0.0184636982329783,-0.160496841334269,-0.0075787631865393,-0.0692414115827916,0.199540187790562,-0.00169886369416384,0.0736716818750572,0.054506057924131,-0.011154515213477,-0.0937528611102634,1.020655944497
2.76,1,0.0200354014709922,0.000152592547379986,-0.011357971943317,0.0960366629027172,0.0312458672851751,-0.107028412732322,0.0144759463281147,-0.158421582689901,-0.00495417137160354,-0.0781121250038148,0.214829961038036,0.00474054180527156,0.087150690226956,0.0671712393566698,-0.0116275521103549,-0.108462782677694,1.02115441348511
2.79,1,0.0207322407706941,0.000152592547379986,-0.0119429100416069,0.105639820551164,0.0237840917182938,-0.116133101392661,0.0102237006744591,-0.162856939400413,-0.00617491175064343,-0.098239082003235,0.227825759656565,-0.00482701091545356,0.0951160212001913,0.0744549902849412,-0.0121311075167089,-0.115054780724509,1.01594592120121
2.82,1,0.02137312946969,0.000152592547379986,-0.0122531815546129,0.11388490452793,0.0281736706645914,-0.121026235745313,0.0239163385926898,-0.155369731742302,-0.00281787570828374,-0.105548265022736,0.252789900407931,-0.011383404034547,0.110685547451196,0.0894039735099338,-0.0125125888851588,-0.122974333933531,1.01628162480544
2.85,1,0.021897030549028,0.000152592547379986,-0.0124668111209449,0.124352753278197,0.0311492253385011,-0.134566281116164,0.0182195501571703,-0.164057334106469,-0.00261441897844376,-0.121102532019003,0.27970722576576,-0.0165410321359905,0.1257464318776,0.103940956857,-0.0128940702536088,-0.137277342041281,1.01495915606148
2.88,1,0.0224921414838099,0.000152592547379986,-0.0132094281848608,0.131661936297698,0.0194148584449802,-0.134434034241768,0.0257881405072176,-0.165664642272205,-0.00202439446190781,-0.143615019175797,0.289056062501907,-0.0276345103305155,0.140924303923663,0.118528804386527,-0.0131687368388928,-0.132857244585508,1.01457767469303
2.91,1,0.0229550055441959,0.000152592547379986,-0.0132297738578448,0.140786970631021,0.0295063122450433,-0.147516301970478,0.0254829554124577,-0.165461185542365,-0.00147506129133986,-0.17866552730898,0.320861435794143,-0.0477665537481816,0.161432742291533,0.138579465112257,-0.0134281441694388,-0.14981536301767,1.0001881974751
2.94,1,0.0247505111850337,0.00570696127201147,-0.0140944649596647,0.1478062278105,0.0159662668741925,-0.147470524206264,0.0178533280434584,-0.182551550848923,0.00554419588813949,-0.211935789056063,0.347636341441084,-0.0476953438927376,0.181641081982889,0.15701264483576,-0.0164596494440545,-0.149118523717968,0.959028901028474
2.97,2,0.0260424614195176,0.0032400484227017,-0.0185552537614063,0.149545782850632,0.000498468988107954,-0.138426872564877,0.0239570299386578,-0.177770317697684,0.0292469049144973,-0.215465763318786,0.342850021871598,-0.160405285805841,0.202571693065177,0.176620787174088,-0.0175888342946664,-0.138264107181005,0.846196885077466
3,2,0.0289061148920153,0.00826542964974924,-0.0166732790103865,0.14727215389467,-0.0120649840795109,-0.130751467431664,0.0241197953225298,-0.185949278237251,0.0127669097974588,-0.184423352763451,0.34372488580991,-0.237372966704306,0.222942798140405,0.194133325195064,-0.0172683899451684,-0.137470625934629,0.660145878475295
3.03,2,0.0418510493280842,0.0401013214514603,-0.00418103579821162,0.129439171524196,-0.0861486658324941,-0.145079907630645,0.00159713532924385,-0.222103539129816,-0.00184128340505183,-0.173090812911364,0.357198807743563,-0.145980203660187,0.243842890713218,0.202078310495315,0.0351369772433648,-0.163630074973805,0.479232154301584
3.06,2,0.0993326619261249,0.195465966775516,0.0693838312936796,0.076586199530015,-0.200872829371014,-0.154550818404696,-0.0459913937803278,-0.294452752260913,-0.000233975239315978,-0.146524450412509,0.628533789076408,-0.054261909848323,0.272133548997467,0.17284157841731,0.0784223965168208,-0.154922126936654,0.415392518896044
3.09,2,0.220562354401278,0.421791233049511,0.0533921323282571,0.0152134769737846,-0.209743542792037,-0.132323170669678,-0.0709148431857255,-0.30303862626016,0.0201727347636341,-0.0296232998647013,1.13698232978301,0.00180059205908383,0.325296792504654,0.104841252886542,0.0523494165878272,-0.123299864701275,0.396435438093204
3.12,2,0.362717571540473,0.504084393851538,0.0202998952197841,-0.0402590004170863,-0.184423352763451,-0.0839818516596983,-0.0260729799289936,-0.27978352203945,0.00530004781233151,-0.0460371715445418,1.48505101677501,-0.0749941506190171,0.406964323862423,0.0443332214321319,0.0138503168838567,-0.0781324706767988,0.285765149896746
3.15,2,0.506683553575243,0.500590024516536,-0.00838750368765323,-0.098239082003235,-0.198115990681682,-0.0417086296171962,-0.0710165715506455,-0.170303455712556,-0.0129093295083468,-0.104632709738456,1.253659677928,-0.0570441806288847,0.492695903398745,-0.0137740206101667,-0.00925219478947315,-0.0392010254219184,0.0904517756686097
3.18,2,0.643910031434065,0.470783613594979,-0.0242876471246478,-0.169143752352468,-0.236269213944924,0.0282906582842494,-0.0337839899899289,-0.122104556413465,-0.011118910285755,-0.0351166315703808,0.673838516393526,-0.312326425977355,0.548483738720868,-0.0952024903103732,-0.0298877936134933,0.0815098523921425,0.0199031545965962
3.21,2,0.745826593829157,0.353755302591021,-0.032547990356151,-0.186864833521531,0.0320546077862891,0.0988443657745089,-0.0097760958688111,-0.0850143945636362,-0.0174667602567624,-0.188319549139887,0.172872096926786,-0.309905290892259,0.573381756035035,-0.172195603300068,-0.0352844833724988,0.123228654845831,0.0053966897590055
3.24,2,0.805831069877214,0.211610258288319,-0.0253557949563077,-0.123416852320933,0.269620858383943,0.0504877875097914,-0.0301421145257932,-0.0185450809249143,-0.0223904131188899,-0.242474644205044,-0.420153406374299,-0.456963815220598,0.564124474827316,-0.241447187719352,-0.0258542639444156,0.0506759849848933,0.00239061657561978
3.27,2,0.827066866054262,0.0804366181422366,-0.0260017700735496,-0.0308440402437412,0.332728049562059,0.0054272082684815,-0.032237718843145,-0.0402946053448083,-0.0261950539668976,-0.217607145400352,-0.903973509933775,-0.418078147729932,0.52350942513301,-0.303338724936674,-0.0570390942106388,-0.0257118442335276,0.00175990071311584
3.3,2,0.785231075980916,-0.135654774620808,-0.116550187688833,0.0355744092125207,0.197159744051434,-0.0495315408795434,-0.166478469191565,0.0182602415031383,-0.0395214697714164,-0.200760928169602,-1.60206915494247,-0.360128584653259,0.407605212561419,-0.377371542507197,-0.122196111941893,-0.0720948922187974,0.00167851802117985
3.33,2,0.665568000325531,-0.400097659230323,-0.0558081809951069,0.0428072959583321,-0.0087181208736432,-0.0307524847153132,-0.154352448093102,-0.0686157821385337,-0.0375682851649525,-0.0930305897193315,-2.62003438418734,-0.435438093203528,0.236498102765994,-0.428805403810745,-0.0564287240211188,-0.0184331797235023,0.00167851802117985
3.36,2,0.514572588274789,-0.509496342865281,-0.0162561927142145,0.0251065604622537,-0.0576799829096347,0.00126143172500788,-0.0203965371664581,-0.271665598518835,-0.032726014994761,-0.10671305480107,-2.98509679453922,-0.421196122114729,0.0669270912808618,-0.447452213100579,-0.010762861008535,0.00606301054923144,0.00167851802117985
3.39,2,0.352071698151596,-0.542964974923958,0.021586759036022,0.0142114525793227,-0.0267749056469415,0.00460829493087558,0.105502487258522,-0.419334493036693,-0.0336212246060569,-0.0951770582191433,-2.7040111494288,-0.263008514664144,-0.106906338694418,-0.45890682699057,0.0231330301828059,0.00289925840021973,0.00167851802117985
3.42,2,0.201645964944405,-0.502792443617054,0.0412203334655802,0.0118411816766869,-0.00147506129133986,-0.00143436994537187,0.10513626514481,-0.395530055645416,-0.0450148014770959,0.0497248247728914,-2.26939705598112,0.0400199387595243,-0.256508072145756,-0.458082827234718,0.0456862086855678,-0.00286873989074374,0.00167851802117985
3.45,2,0.0890530106509598,-0.381990010274565,0.0438652709535,0.0114240953805149,0.000152592547379986,-0.00316375214901171,0.106926684367402,-0.301329589729504,-0.0407829014964243,0.146336252937407,-1.71296324554175,0.421613208410901,-0.374828333384198,-0.463799961343221,0.0475580106000956,-0.00366222113711966,0.00167851802117985
3.48,2,0.0167546617023225,-0.247077852717673,0.0376496678568885,0.010976490574867,0.000152592547379986,-0.00313323363953571,0.0716065960671814,-0.221574551632232,-0.0130314035462508,0.146051413515631,-1.19082206691692,0.641844945626189,-0.459557888526058,-0.476200649026968,0.0389314452548804,-0.00360118411816767,0.00167851802117985
3.51,2,-0.0188095746737063,-0.123030284534237,0.0269783623767815,0.010549231442203,0.000152592547379986,-0.00348928291675568,0.0699789422284616,-0.188655252744123,-0.00273649301634775,0.164911852371797,-0.76204718161565,0.620512507502467,-0.51692251350444,-0.497950173446862,0.0249132765689057,-0.00320444349497971,0.00167851802117985
3.54,2,-0.032512385428429,-0.0463576158940397,0.0165715506454665,0.0101117994730471,0.000152592547379986,-0.00333669036937569,0.0595619576606545,-0.168513036489964,0.00658182521032339,0.214117862483596,-0.465600553402305,0.426547034109521,-0.552395194352041,-0.519689525030264,0.0138757489750867,-0.00320444349497971,0.00167851802117985
3.57,2,-0.0409863582262642,-0.0267952513199255,0.0119327372051149,0.00953194779300312,0.000152592547379986,-0.00317392498550371,0.054678996144495,-0.153253781751966,0.0180160934273303,0.242001607308166,-0.28680277921893,0.152236498102766,-0.530686361278115,-0.489486373485519,0.011352885525071,-0.00305185094759972,0.00167851802117985
3.6,2,-0.0464695170954517,-0.0159204891099785,0.011210465814183,0.00911486149683116,0.000152592547379986,-0.00309254229356772,0.0583005259356466,-0.144912055828527,0.0242825607064018,0.245073803928749,-0.0992055014699749,-0.0748517309081291,-0.423932615131077,-0.377218949959817,0.010854416536963,-0.00274666585283975,0.00167851802117985
3.63,2,-0.0498265531378114,-0.00935900957263914,0.0100507624540951,0.0087384665466272,0.000152592547379986,-0.00301115960163172,0.0602537105421105,-0.141412600075279,0.0296538183741773,0.19836013875749,0.0955636260058392,-0.138106428215379,-0.315388449761447,-0.26537878556678,0.0100304167811111,-0.00274666585283975,0.00167851802117985
3.66,2,-0.0504165776543474,-0.000966419466739911,0.00947091077405113,0.00839259010589923,0.000152592547379986,-0.00282804854477574,0.0507726269315673,-0.143080945259967,0.0316883856725771,0.121392457859025,0.276223029267251,-0.102654093040763,-0.21444339325134,-0.163782667521185,0.00894192327646718,-0.00274666585283975,0.00167851802117985
3.69,2,-0.0506505528936633,0.000152592547379986,0.00896226894945118,0.00804671366517126,0.000152592547379986,-0.00201422162541581,0.0365713471887366,-0.148370820235806,0.0235908078249458,0.054322946867275,0.417727184870958,-0.0632648701437422,-0.130232652770572,-0.0793786431470687,0.00885036774803919,-0.00241096224860378,0.00167851802117985
3.72,2,-0.0510879848628193,-0.000620543026011943,0.00904365164138717,0.00731426943774733,-0.00331634469639169,-0.00281787570828374,-0.284320607114882,-0.19479964598529,0.065095980712302,-0.107404807682526,0.239621163569038,-0.0629393393759982,-0.0719829910173854,-0.0206203395692821,0.00885036774803919,-0.00209560431735181,0.00811792352061525
3.75,2,-0.0645364747052421,-0.04345835749382,0.0127160456149988,-0.000488296151615955,-0.032837916196173,0.00277718436231574,-0.0891649118523718,-0.206966358429721,0.00914538000630716,-0.0842209133172603,0.218777021596932,0.122440260017701,-0.0599180069378745,0.00472019613228757,0.0168869085767184,0.00693787448754336,0.118320261238441
3.78,2,-0.065126499221778,-0.00481175166071556,0.0249132765689057,-0.0304778181300292,-0.113539028087202,0.0303862626016012,-0.086804813786228,-0.145929339477727,0.0102033550014751,-0.0443332214321319,0.249326049582405,0.264625995666372,-0.0559811192154709,0.00924710837122715,0.0307626575518052,0.0578325754570147,0.237210201320434
3.81,2,-0.0487685781426435,0.0537430951872311,0.0152694275744906,-0.0561845759453108,-0.0621967223120823,0.0608233893856624,-0.0427767774488561,-0.177261675873084,-0.0303659169286172,-0.0625934629352702,0.397371339050467,0.358602659179459,-0.0466628009887997,0.00224819686473179,0.00482192449720756,0.0590838343455306,0.340790022481969
3.84,2,-0.0455437889746798,0.0130415763827428,0.00966419466739911,-0.0719931638538774,-0.0499994913581754,0.0511388490452793,-0.0315866573076571,-0.170547603788364,-0.0181585131382183,-0.0362152979115167,0.288674581133457,0.15337585578987,-0.0258186590166936,0.0198166854864142,0.0185247352519303,0.0519933673106072,0.434247871333964
3.87,2,-0.0457879370504878,0.000712098554439934,0.0261950539668976,-0.087394838302764,-0.0447299620553199,0.0549740084027629,-0.0639362773522141,-0.155084892320526,-0.0179550564083783,-0.0149845881527146,0.296975615710929,0.0211391542303741,-0.0270800907417015,0.0187688833277383,0.0274463128554135,0.0559811192154709,0.526942757449059
3.9,2,-0.0463169245480717,0.000152592547379986,0.0280668558814254,-0.0992258471429589,-0.0347300637836848,0.0553910946989349,-0.0509964293343913,-0.156793928851182,-0.0115665150914029,-0.0418510493280842,0.32654805139317,0.129133986429436,-0.0336008789330729,0.0127669097974588,0.0281991027558214,0.054821415855383,0.61136712749616
3.93,2,-0.0468662577186397,0.000152592547379986,0.0284635965046134,-0.11113823867509,-0.0386466058331044,0.0584429456465346,-0.0528682312489191,-0.151463362529374,-0.0194199448632262,-0.0235806349884538,0.320739361756239,0.0265612760806096,-0.0489822077089755,-0.00194301176997182,0.0285042878505814,0.0602435377056185,0.680033773817153
3.96,2,-0.0474868007446516,0.000152592547379986,0.0291044852036093,-0.120100507624541,-0.0235094251330098,0.0579241309854427,-0.0442009745577359,-0.155044200974558,-0.0087181208736432,-0.00265511032441176,0.332031210262357,0.0279244361705374,-0.0593076367483545,-0.0115868607643869,0.0288399914548173,0.0572425509404787,0.759676910713014
3.99,2,-0.0506708985666473,-0.00772118289742729,0.032736187831253,-0.127384258552812,-0.022075055187638,0.0572425509404787,-0.0471307514674317,-0.160456149988301,-0.0152287362285226,0.032461521245969,0.334381135492009,0.0129601936908068,-0.0661539557074699,-0.0152490819015066,0.0345164342173528,0.0586362295398826,0.86972665588346
4.02,2,-0.0508641824599953,-0.000701925717947935,0.032644632302825,-0.131555121514532,-0.00787377544480728,0.0525121819716992,-0.0291044852036093,-0.169733776869004,-0.0141300698873867,0.0351064587338888,0.32532731101413,-0.0350352488784448,-0.0508336639505193,0.000162765383871985,0.0317494226915291,0.0528478855759351,0.989806817835017
4.05,2,-0.0511388490452793,0.000152592547379986,0.0313221635588651,-0.130151270078636,0.00821965188553524,0.0456149988301238,-0.0289824111657053,-0.170262764366588,-0.0152694275744906,0.0331939654733929,0.306202378409172,-0.0149845881527146,-0.0319325337483851,0.0192775251523382,0.0312814722128971,0.043488876003296,1.09605192215746
4.08,2,-0.0536922310047711,-0.00691752881455936,0.0340688294117049,-0.122399568671733,0.032532731101413,0.0358795943072807,-0.0232042400382499,-0.165461185542365,-0.0179550564083783,0.00613422040467544,0.282560706401766,0.000417086296171962,-0.0195521917376222,0.0341909034496089,0.0357270017599007,0.0302336700542212,1.13911353902809
4.11,2,-0.0572323781039867,-0.00940987375509914,0.0393892228970204,-0.10717083244321,0.0526139103366192,0.021464684998118,-0.0351674957528408,-0.156549780775374,-0.0164494766075625,-0.00125125888851588,0.283282977792698,0.00333669036937569,-0.0237332275358338,0.0335500147506129,0.0396638894823044,0.010671305480107,1.13992736594745
4.14,2,-0.0574460076703187,-0.000773135573391929,0.0365001373332926,-0.0945259966836553,0.0375377666554765,0.0142114525793227,-0.032726014994761,-0.155654571164078,-0.0194199448632262,-0.0120242927335429,0.287942136906033,-0.000559506007059949,-0.032237718843145,0.0252896715191097,0.0357880387788527,0.0129296751813308,1.12639749341309
4.17,2,-0.0576189458906827,0.000152592547379986,0.0352590512812688,-0.0830815556301564,0.0390535192927844,0.0135807367168188,-0.0243842890713218,-0.156346324045534,-0.0165308592994985,-0.0240892768130538,0.298359121473841,-0.0102440463474431,-0.032705669321777,0.0249539679148737,0.0352488784447768,0.010589922788171,1.11278623818679
4.2,2,-0.0576799829096347,0.000152592547379986,0.0351674957528408,-0.0691651153091016,0.0420087282937101,0.00191249326049582,-0.0263374736777856,-0.156061484623758,-0.0159204891099785,-0.0227922401603239,0.313119907223731,-0.00725831883704133,-0.0303099663279112,0.0274208807641835,0.0352488784447768,0.00171412294890184,1.10824406669312
4.23,2,-0.0576240323089287,0.000152592547379986,0.0355337178665527,-0.0585395875932086,0.0292214728232673,0.00387585070345164,-0.0265002390616576,-0.160842717774997,-0.0170395011240984,-0.0318816695659251,0.32431002736493,-0.00929288613544115,-0.0295368307545193,0.0281482385733614,0.0352488784447768,0.00550859096041749,1.10626036357718
4.26,2,-0.054872280037843,0.00791955320902127,0.0311695710114851,-0.0443484806868699,0.0482802819910276,-0.00043234555090996,-0.00841293577888323,-0.157526373078606,-0.0151880448825546,-0.0341247800124109,0.367661570075584,0.0021617277545498,-0.0180110070090843,0.0369782606484166,0.0300709046703492,-0.00645466475417341,1.10594500564592
4.29,2,-0.0492721335489975,0.0186722413810643,0.0271360413424075,-0.0199489323608102,0.0783257545701468,-0.0149591560614846,-0.0248929308959217,-0.161798964405245,-0.0176498713136184,-0.0462050233466597,0.466978972746971,0.00234992522965178,0.00475580106000956,0.054190699992879,0.0234280424410738,-0.032776879177221,1.09607226783044
4.32,2,-0.0339365825373089,0.0419019135105441,0.00567644276253548,0.00629698578854742,0.0661844742169459,-0.0336313974425489,-0.0381379640085045,-0.166966765343181,-0.0199082410148422,-0.0712607196264534,0.656636249885556,-0.00312306080304371,0.04300057985168,0.0771609647918129,0.000681580044963937,-0.0367035940631326,1.08667256691183
4.35,2,-0.0160120446384065,0.0457574185410118,-0.0021464684998118,0.0320139164403211,0.086947233497116,-0.0515457625049593,0.0264798933886736,-0.150568152918078,-0.00733461511073133,-0.0927559231340475,0.638192897325561,-0.0175379701122064,0.0835393332722963,0.0997548346405428,-0.00767031871496729,-0.0576291187271747,1.05951109347819
4.38,2,0.0240791039765618,0.114312163660593,-0.0519018117821792,0.0632140059612822,0.0991037731050549,-0.0824915311136204,-0.010630614134139,-0.158950570187485,-0.0196234015930662,-0.0723390402946053,0.683706167790765,0.0245063631092257,0.122430087181209,0.0984527115695669,-0.0669881282998138,-0.0845973082674642,1.02532019002859
4.41,2,0.0537532680237231,0.0844752342295602,-0.075624866481521,0.0926135034231595,0.08732362844732,-0.101606290882087,0.0282296212652974,-0.157729829808445,-0.00363170262764367,-0.0712302011169774,0.537400433362835,-0.0196640929390342,0.158981088696961,0.105299030528682,-0.075624866481521,-0.10513626514481,1.01642913093458
4.44,2,0.0786156804101688,0.0703858556881415,-0.0809452599668365,0.116977446821497,0.0688497573778497,-0.120049643442081,0.0164291309345785,-0.164118371125421,-0.00973540452284311,-0.0752382986948251,0.496556494847458,0.0086774295276752,0.190140486871955,0.111585843480738,-0.0819015065970845,-0.125675222022156,1.02265490686768
4.47,2,0.0987172053183589,0.0560014648884548,-0.086998097679576,0.133569343139948,0.04391613513596,-0.134576453952656,0.0368154952645446,-0.161880347097181,-0.0118106631672109,-0.0749127679270811,0.382773318684449,0.00559506007059949,0.216640725933612,0.117994730470697,-0.0882798750775679,-0.137251909950051,1.01794488357189
4.5,2,0.108096560563982,0.0230414746543779,-0.0800703960285246,0.142236599831131,0.011322367015595,-0.139337341430911,0.0417798394726402,-0.17429120761742,-0.0142521439252907,-0.0902025411745557,0.183406069114251,0.0336517431155329,0.233720918403678,0.125715913368124,-0.0799686676636047,-0.140710674357331,0.968850774661499
4.53,2,0.105909400718202,-0.0138452304656107,-0.0536515396588031,0.138777835423851,-0.0281075472273934,-0.132297738578448,0.0343333231604968,-0.176244392223884,-0.00102745648569191,-0.0675069429609058,-0.0563778598386588,0.0402946053448083,0.237098300119022,0.131260109256264,-0.0482090721355836,-0.143294574826299,0.777143670969777
4.56,2,0.0945870337026073,-0.0390942106387524,-0.0132348602760908,0.107038585568814,-0.144728944771671,-0.123182877081617,-0.00188197475101983,-0.228003784295175,-0.00342824589780368,-0.0599993896298105,-0.325459557888526,0.0064699240089114,0.225318155461287,0.13078198594114,0.0253303628650777,-0.140822575558743,0.496780297250282
4.59,2,0.0916165654469436,0.00239061657561978,0.0856959746086001,0.0288094729453413,-0.301787367371644,-0.102155624052655,-0.0590126244900866,-0.301288898383536,-0.0147404400769066,-0.0391959390036724,-0.212042603839229,0.101128167566963,0.204585914690593,0.11307107760857,0.0899075289162877,-0.108167770419426,0.290220852280241
4.62,2,0.10640786970631,0.0687480290129297,0.0881171096936959,-0.0753400270597451,-0.362071596423231,-0.0630614134139022,-0.0455437889746798,-0.257464318776004,-0.0252388073366497,0.0231228573463139,0.0271411277606535,0.237576423434146,0.201707001963357,0.0953601692759992,0.0861842707602161,-0.0504776146732994,0.220048626158432
4.65,3,0.125614185003204,0.0827356791894284,0.0633360799991862,-0.172805973489588,-0.320871608630634,-0.0227769809055859,0.0600095624663025,-0.207536037273273,-0.0141300698873867,0.0147302672404146,0.198349965920998,0.566871140680156,0.208766950488805,0.0832443210140283,0.0626341542812382,0.0188400931831823,0.116153447065645
4.68,3,0.15057832575457,0.097994933927427,0.0462253690196438,-0.257515182958464,-0.261960712505468,0.065095980712302,0.123243914100569,-0.225684377574999,0.0252998443556017,-0.0491551459293395,0.346059551784824,0.468530330312001,0.225358846807255,0.0748822494176051,0.0441806288847519,0.151910967335022,0.0269478438673055
4.71,3,0.178217922503332,0.104393648080894,0.0372325815607166,-0.250719728181809,0.140720847193823,0.117130039368877,0.115512558366649,-0.206559444970041,0.032095299132257,-0.0420850245674001,0.483779412213507,-0.021556240526546,0.251360616880805,0.0732240770694093,0.0373241370891446,0.137038280383719,0.00683614612262337
4.74,3,0.212724183884192,0.126010925626392,0.0334788048951689,-0.146376944283375,0.409059928179774,0.0419934690389721,0.0797041739148127,-0.176854762413404,0.0251777703176977,0.054506057924131,0.582883185318562,-0.164199753817357,0.283720409761854,0.0710470900601215,0.032481866918953,0.0373037914161606,0.00268562883388775
4.77,3,0.253323974323761,0.145725882747887,0.0352285327717928,-0.0187790561642303,0.445254880418307,0.010945972065391,0.0414543087048962,-0.162409334594765,-0.00147506129133986,0.0121361939349549,0.67090873948383,-0.434573402101708,0.321349731945758,0.0681274859869177,0.0424919380270801,-0.0127058727785068,0.00183111056855983
4.8,3,0.311644845932391,0.206773074536373,0.0586057110304066,0.0992461928159429,0.39397361166214,-0.0169377727591784,0.0517899105807672,-0.21469771416364,-0.0043641468550676,-0.0723695588040813,0.912757754244616,-0.349182612587868,0.367534409619434,0.0559811192154709,0.0609963276060264,-0.0269987080497655,0.00167851802117985
4.83,3,0.399711091443627,0.30405590990936,0.0342010762861008,0.184148686178167,0.26120792260506,-0.0245063631092257,-0.0076194545325073,-0.193660288298186,0.0010884935046439,-0.0785851619006928,1.12847275205746,-0.207586901455733,0.431185847549872,0.0315459659616891,0.0312814722128971,-0.0309152500991852,0.00167851802117985
4.86,3,0.502253283282978,0.355713573615731,0.0196030559200822,0.228461561937315,0.12788272754092,-0.0157170323801386,-0.0189316487116103,-0.193416140222378,-0.00464898627684357,-0.0939461450036114,1.14022237820572,-0.0257169306517736,0.499649037141026,-0.00245165359457177,0.00973540452284311,-0.00773135573391929,0.00121056754254789
4.89,3,0.604937894833216,0.352997426272368,0.000386567786695964,0.244219285663422,0.0455844803206478,0.00474054180527156,-0.0356151005584887,-0.165501876888333,0.000681580044963937,-0.101799574775435,1.02184107994832,-0.0273852758364615,0.564938301746676,-0.0397757906837163,0.000671407208471938,0.0151371807000946,0.00145471561835587
4.92,3,0.696686707154556,0.310586870937223,0.00140385143589587,0.251940468560849,0.0318409782199571,0.0120344655700349,-0.0706910407829015,-0.097547329121779,-0.00790429395428327,-0.0683919797357097,0.713431196020386,-0.0355438907030447,0.617857397178055,-0.0785749890642008,0.00512710959196753,0.0178024638609984,0.00152592547379986
4.95,3,0.786044902900276,0.296477146722821,0.000386567786695964,0.25718965219072,0.021291746777754,0.0156458225246946,-0.0573849706513667,-0.100029501225827,-0.00416069012522762,-0.0385652231411685,0.337829727062797,-0.0137536749371827,0.64765363526312,-0.138167465234331,0.000193283893347982,0.0178635008799504,0.00164799951170385
4.98,3,0.86428418836024,0.262357453128656,-0.0022176783552558,0.261686045920184,0.0185145624154383,0.0170903653065584,-0.0372020630512406,-0.103569648325042,0.00536108483128351,-0.0813725190995005,0.0246589556566057,0.0140385143589587,0.658121484013387,-0.205949074780521,-0.00191249326049582,0.0167648345388145,0.00167851802117985
5.01,3,0.925738293608407,0.209560431735181,0.00171920936714784,0.26380199591052,0.00785342977182328,0.0176295256406344,-0.0252388073366497,-0.0946989349040193,0.00442518387401959,-0.105533005767998,-0.30522578610594,-0.0314035462508011,0.649108350881476,-0.276395967487615,0.0043539740185756,0.0191757967874182,0.00167851802117985
5.04,3,0.97359131646677,0.168024740338349,0.00638854131697541,0.262967823318176,0.000152592547379986,0.0207322407706941,0.00312306080304371,-0.111382386750898,-0.000783308409883928,-0.130517492192348,-0.614581743827631,-0.0365713471887366,0.620349742118595,-0.353017771945351,0.00797550380972727,0.0227973265785699,0.00167851802117985
5.07,3,1.00008138269194,0.0997548346405428,0.0142928352712587,0.263588366344188,0.0075889360230313,0.022197129225542,0.0515457625049593,-0.137709687592191,-0.00859604683573921,-0.154586423332418,-0.776187424339529,-0.0247403383485417,0.578101952167323,-0.421714936775821,0.0207627592801701,0.0200710063987142,0.00167851802117985
5.1,3,1.01285846532589,0.0531734163436791,0.0318206325469731,0.263740958891568,0.000549333170567949,0.0201015249081902,0.0798262479527167,-0.154637287514878,-0.0114037497075309,-0.141880550553911,-0.920275480412203,-0.0257576219977416,0.525986510818812,-0.486658324940743,0.0340281380657369,0.022054709514654,0.00167851802117985
5.13,3,1.02206488235115,0.0391552476577044,0.021225623340556,0.263211971393984,0.000152592547379986,0.0124362926114689,0.116529842015849,-0.158584348073773,-0.0179957477543463,-0.148686178167058,-0.897961363567003,-0.0211137221391441,0.471780551571195,-0.550050355540635,0.00265002390616576,-0.0267647328104495,0.00167851802117985
5.16,3,1.01362651448103,-0.021713919492172,-0.010467848750267,0.254727825759657,-0.0427564317758721,-0.0256202887050996,0.0368765322834966,-0.0875576036866359,-0.0198472039958902,-0.109424115726188,-1.06943978189439,-0.0792362234361807,0.415234839930418,-0.598178044984283,-0.00731426943774733,-0.0448113447472559,0.00144962920010987
5.19,3,0.991078422396517,-0.0706859543646555,0.0032858261869157,0.226701661224199,-0.111219621367026,-0.0170954517248044,0.075553656626077,-0.134820602028464,-0.0160425631478825,-0.0893022451450138,-1.2090314442376,-0.132755516220588,0.345118564409314,-0.645710623493149,0.0054373811049735,-0.00460320851262958,0.00143436994537187
5.22,3,0.960819320251066,-0.0990122175766269,0.010869675791701,0.198578854742068,-0.0845617033397422,0.00728883734651733,0.110894090599282,-0.123752555925169,-0.0252794986826177,-0.0735546942553992,-1.15144301685639,-0.097821995707063,0.295485295164851,-0.665089877010407,0.0143640451267027,0.00853500981678721,0.00152592547379986
5.25,3,0.925778984954375,-0.115451521347697,0.0191605375326802,0.190033672088788,-0.0208339691356141,-0.00290434481846573,0.12808618427076,-0.116651916053753,-0.0249132765689057,0.0186620685445723,-1.0204016235847,-0.0631071911781162,0.288771223080131,-0.636748354543697,0.021561326944792,-0.010656046225369,0.00164291309345785
5.28,3,0.892300180059206,-0.10976490574867,0.0237637460453098,0.189616585792617,-0.0011240984323659,-0.00907417015086317,0.141778822188991,-0.124546037171545,-0.0247708568580177,0.0690939054536577,-0.799162775556708,-0.00696330657877336,0.248720765811131,-0.643335266172267,0.0245368816187017,-0.0185806858526363,0.00167851802117985
5.31,3,0.863638213242998,-0.0948718731243833,0.0242062644327118,0.188461968850775,-0.00880967640207119,-0.0147709585863826,0.138238675089775,-0.126539913123976,-0.0138452304656107,0.105756808170822,-0.554475539414655,0.00569678843551948,0.208527888831243,-0.654891608427178,0.0246131778923917,-0.0165512049724825,0.00167851802117985
5.34,3,0.841100293994975,-0.0748822494176051,0.0228685364340139,0.185115105644907,-0.0136061688080487,-0.0146387117119867,0.138462477492599,-0.120985544399345,-0.000620543026011943,0.0946633299762973,-0.305831069877214,0.032573422447381,0.195109917498296,-0.645766574093855,0.0230058697266559,-0.0121565396079389,0.00167851802117985
5.37,3,0.830225531785028,-0.0357931251970987,0.0192317473881242,0.181463057344279,-0.0144606870733767,-0.0128381196529028,0.273761202836187,-0.10401725313069,0.0529292682678711,0.0608844264046144,0.238008768985056,0.0785902483189388,0.207586901455733,-0.622455519272439,0.0171564887437564,-0.010656046225369,0.00167851802117985
5.4,3,0.832244839828689,0.0043285419273456,0.0118513545131789,0.17688528092288,-0.0180720440280363,-0.0097862687053031,0.0450148014770959,-0.125258135725984,0.00558488723410749,0.116992706076235,0.277448856064536,-0.195872880235196,0.224265266884365,-0.607735424868516,0.00797041739148127,-0.00663268939278339,0.00167851802117985
5.43,3,0.830037334309926,-0.00616473891415143,0.00853500981678721,0.169621875667592,-0.0276090782392855,-0.00288908556372773,0.0510371206803593,-0.158319854324981,0.00617491175064343,-0.010864589373455,0.294020406710003,-0.0805993835261086,0.248669901628671,-0.581128371023693,0.00963367615792311,0.00011190120141199,0.00167851802117985
5.46,3,0.829950865199744,-0.000768049155145929,0.00931831822667114,0.166865036978261,-0.0032197027497177,-0.00157170323801386,-0.153904843287454,-0.299193294066185,0.103630685343994,-0.138350576291187,0.161152989288003,-0.126901048819442,0.264091921750542,-0.565574104027426,0.00885036774803919,-0.00483209733369956,0.00167851802117985
5.49,3,0.832280444756411,0.00620543026011943,0.00836207159642323,0.165349284340953,-0.00716676330861334,-0.00309762871181372,0.0527665028839992,-0.189143548895739,-0.0427971231218401,0.114022237820572,0.212708924629454,-0.0242673014516638,0.273847671946369,-0.558188624734235,0.00731935585599333,-0.0043031098361156,0.00167851802117985
5.52,3,0.838745282347077,0.0122786136458429,0.00622068951485743,0.163843704540137,-0.000361135695465967,-0.00225836970122379,0.0249132765689057,-0.108574683879106,0.0187078463087863,0.0299590034689372,0.204336680196539,0.14961190628783,0.287408062990204,-0.551082898444573,0.0054272082684815,-0.00524918362987152,0.00167851802117985
5.55,3,0.845922218492182,0.0140944649596647,0.00508133182775353,0.163406272570981,0.000152592547379986,-0.00388602353994364,0.0200913520716982,-0.144647562079735,0.0245877458011617,0.0128177739799188,0.144667907752719,-0.0383159886471145,0.297133294676555,-0.548534602903328,0.00400301115960163,-0.0054475539414655,0.00167851802117985
5.58,3,0.853907895138401,0.0165817234819585,0.00356049277219967,0.163065482548499,0.000152592547379986,-0.00446078880174159,0.02157658619953,-0.193151646473586,-0.0241604866684978,0.0261289305296996,0.167114271472315,0.0263018687500636,0.30649739066744,-0.54714601072217,0.00315866573076571,-0.00518814661091952,0.00167851802117985
5.61,3,0.863032929471725,0.022029277423424,0.000528987497583951,0.162968840601825,0.000152592547379986,-0.00492873928037355,0.0226345611946979,-0.151219214453566,0.00940987375509914,0.0226447340311899,0.169952492853582,-0.00706503494369335,0.316746523433129,-0.546062603635772,0.000996937976215908,-0.00518814661091952,0.00167851802117985
5.64,3,0.87257505010122,0.0229550055441959,0.000152592547379986,0.163096001057975,0.000152592547379986,-0.00508133182775353,0.0333160395112969,-0.152134769737846,-0.000254320912299977,0.00700399792474136,0.179672638121687,-0.0198878953418582,0.327224545019888,-0.545091097750786,1.52592547379986e-05,-0.00518814661091952,0.00167851802117985
5.67,3,0.881369467248553,0.0227261167231259,0.000254320912299977,0.163986124251025,0.000152592547379986,-0.00502538122704754,0.0205999938962981,-0.169733776869004,5.08641824599953e-05,0.00835189875993123,0.170379751986246,-0.0238349559007538,0.337712739443139,-0.54338206122013,-0.000488296151615955,-0.00561540574358348,0.00167851802117985
5.7,3,0.893317463708406,0.0338043356629129,-0.00194809818821782,0.165313679413231,0.000152592547379986,-0.00567644276253548,0.0292469049144973,-0.157302570675782,-0.00444552954700359,0.0160578224026205,0.176218960132654,-0.0193029572435682,0.34809920550147,-0.54498428296762,-0.00344350515254168,-0.00630207220679342,0.00167851802117985
5.73,3,0.904339732047487,0.032537817519659,-0.00460829493087558,0.166732790103865,0.000152592547379986,-0.00600197353027945,0.0342722861415449,-0.155064546647542,-0.00296029541917173,0.00132755516220588,0.17568997263507,-0.000396740623187963,0.358668782616657,-0.545452233446252,-0.00513219601021353,-0.00710572628966135,0.00188197475101983
5.76,3,0.915255185603402,0.032232632424899,-0.00488804793440555,0.168309579760125,0.000152592547379986,-0.00699891150649536,0.0288399914548173,-0.160802026429029,0.00739565212968332,0.0244961902727337,0.172999257382936,-0.0275785597298095,0.369111199275694,-0.545894751833654,-0.00590533158360546,-0.00793481246375927,0.00284839421775974
5.79,3,0.925148269091871,0.0295012258267973,-0.00614947965941343,0.171783603422142,0.00792463962726727,-0.0086570838546912,0.0386669515060884,-0.155573188472142,-0.0022278511917478,0.0371715445417646,0.170405184077476,0.00233975239315978,0.379339986368399,-0.545604825993632,-0.00627155369731742,-0.0124210333567309,0.0144098228909167
5.82,3,0.941145054475539,0.0499231950844854,-0.00829594815922524,0.174301380453912,0.0042980234178696,-0.010564490696941,0.0267850784834335,-0.163548692281869,0.00202439446190781,0.0494603310240994,0.209901221757663,-0.00369782606484166,0.390652180547502,-0.550243639433983,-0.011291848506119,-0.0116224656921089,0.0256406343780836
5.85,3,0.960570085757012,0.0621560309661143,-0.0143030081077507,0.17797886084577,0.00799584948271126,-0.0126906135237688,0.0414339630319122,-0.151829584643086,-0.00251269061352377,0.0573646249783827,0.228873561815241,0.0179347107353944,0.404044719789219,-0.556332082074445,-0.0163884395886105,-0.0158848841822565,0.0341959898678549
5.88,3,0.979995117038484,0.0630766726686402,-0.0174515010020244,0.184993031607003,0.0252032024089277,-0.0172429578539384,0.0495518865525274,-0.148065635141046,-0.000783308409883928,0.0588752911974446,0.24270861944436,0.00807723217464726,0.418174789676606,-0.561571092867824,-0.0186417228715883,-0.0246640420748517,0.0557369711396629
5.91,3,0.998021383302306,0.0596789452803125,-0.0192724387340922,0.1995554470453,0.0512558366649373,-0.0293791517888933,0.0515457625049593,-0.144647562079735,-0.00416069012522762,0.0605690684733624,0.260119429100416,0.0271258685059155,0.433322143213192,-0.564470351268044,-0.0200506607257302,-0.0411084322641682,0.0754468418429111
5.94,3,1.01225318155461,0.0469527268288217,-0.0193843399355042,0.21721549119541,0.054526403597115,-0.0484939115573595,0.0455030976287118,-0.155654571164078,-0.0043234555090996,0.0536718853317871,0.24273405153559,0.0342671997232988,0.448657694224881,-0.563386944181646,-0.0192775251523382,-0.054119490137435,0.101138340403455
5.97,3,1.01747693309325,0.0176091799676504,-0.0164189580980865,0.230674153874325,0.0398673462121443,-0.054841761528367,0.0518306019267352,-0.152399263486638,-0.00426241849014761,0.00792463962726727,0.185679698070213,-0.00158696249275185,0.46061077710298,-0.556642353587451,-0.0257220170700196,-0.0556250699382509,0.129835912147384
6,3,1.00158187607451,-0.0558946501052889,-0.0972828353729871,0.24085207678457,0.0292672505874813,-0.0555386008280689,0.0685954364655497,-0.119459618925545,-0.00704977568895535,-0.0418052715638702,0.0798262479527167,-0.0117089348022909,0.460564999338766,-0.540777815078178,-0.104052858058412,-0.0584582049012726,0.162948494928841
6.03,3,0.970305490279855,-0.104902289905494,-0.0563727734204128,0.248751284320607,0.0228939685252439,-0.06556901760918,0.0405387534206163,-0.200150557980082,0.00389619637643564,-0.0277921892961414,0.0340688294117049,-0.0474359365621916,0.472462131616159,-0.497624642679118,-0.0499181086662394,-0.0669525233720918,0.23556220180873
6.06,3,0.964603615426089,-0.0283618681396934,-0.0538041322061831,0.252286345001577,0.0032807397686697,-0.0718253120517594,0.0464186529129917,-0.158787804803613,-0.00359101128167567,0.0155186620685446,0.0717032380138554,0.02134769737846,0.469161046174505,-0.495208594012268,-0.065228227586698,-0.0741396323536892,0.26044495986816
6.09,3,0.923215430158391,-0.145664845728935,-0.146346425773899,0.252052369762261,-0.00526952930285552,-0.0856145919166641,0.0617592903429263,-0.0744346446119572,-0.010671305480107,0.00565609708955148,-0.0614134139021984,0.0473647267067476,0.457309691661326,-0.465671763257749,-0.144535660878323,-0.0840886664428643,0.274615721101515
6.12,3,0.878861863053275,-0.151605782240262,-0.122074037903989,0.254188665425581,0.00549333170567949,-0.0886257515182958,0.0301421145257932,-0.229753512171799,0.010976490574867,0.0413424075034842,-0.0143030081077507,-0.011312194179103,0.452101199377422,-0.426516515600045,-0.118839075899533,-0.0904365164138717,0.346659749137852
6.15,3,0.864467299417096,-0.0618711915443383,-0.152317880794702,0.255165257728813,0.000152592547379986,-0.0915453555914996,0.0526851201920632,-0.131728059734896,-0.00790429395428327,0.0973133538824631,0.0480869980976796,0.106570635090182,0.45290485346029,-0.411348816390474,-0.171920936714784,-0.0948210089419233,0.379975788649149
6.18,3,0.806441440066734,-0.206193222856329,-0.225877661468347,0.255897701956236,0.000152592547379986,-0.107791375469222,0.0804773094882046,-0.140029094312367,0.0087384665466272,0.0590940071820226,-0.167190567746005,0.0339467553738009,0.434349599698884,-0.37188838363801,-0.214982553585416,-0.10569577115187,0.402366201768039
6.21,3,0.761518194118066,-0.157587410097558,-0.208237962991221,0.25561286253446,-0.00620543026011943,-0.106346832687358,0.00857570116275521,-0.218929614144312,-0.00615456607765943,0.0939054536576434,-0.0100304167811111,0.043682159896644,0.419670196640929,-0.341624195074313,-0.209306110822881,-0.110314238919238,0.479018524735252
6.24,3,0.734865362509028,-0.108890041810358,-0.235134942676066,0.250445061596525,-0.021342610960214,-0.112297942035178,0.0854009623503321,-0.110649942523474,-0.00281787570828374,0.0335703604235969,-0.13042593666392,0.0486770226142155,0.405072176274911,-0.32954903815831,-0.236406547237566,-0.109775078585162,0.508438367870113
6.27,3,0.67706330556149,-0.202998952197841,-0.23876664530371,0.246172470269885,-0.0180567847732983,-0.110761843724886,0.0707113864558855,-0.144260994293039,-0.00863673818170721,0.0392264575131484,-0.286304310230822,-0.0126143172500788,0.405784274829351,-0.271075574002299,-0.273099968464207,-0.119571520126957,0.525477868994212
6.3,3,0.595416119876705,-0.28441216264331,-0.240872422457554,0.233720918403678,-0.0489211706900235,-0.113284707174902,0.0392569760226244,-0.180883205664235,-0.00175990071311584,0.0311288796655171,-0.425509404787337,0.011017181920835,0.382793664357433,-0.212388480279956,-0.260587379579048,-0.115278583127333,0.581296222825811
6.33,3,0.518865525274412,-0.273781548509171,-0.23718985564745,0.213181961526332,-0.0819421979430524,-0.102084414197211,0.0469883317565437,-0.180069378744875,-0.0043641468550676,0.0402844325083163,-0.537135939614043,0.0076092816960153,0.353740043336283,-0.164891506698813,-0.241594693848486,-0.106590980763166,0.619790236111535
6.36,3,0.42990407015188,-0.312784203619495,-0.237047435936562,0.177607552313812,-0.134301787367372,-0.0851771599475082,0.0529292682678711,-0.15520696635843,-0.0147811314228746,-0.0412508519750562,-0.769717500330617,-0.0196132287565742,0.314706869716483,-0.114942879523097,-0.227149266029847,-0.0883205664235359,0.634612058880378
6.39,3,0.325062817265338,-0.363556830551063,-0.15047659738965,0.13078198594114,-0.164281136509293,-0.065726696574806,0.0175684886216824,-0.169123406679484,-0.00680562761314737,0.00309254229356772,-0.932554094058046,-0.0463372702210557,0.260638243761508,-0.0641804254280221,-0.139378032776879,-0.0601825006866665,0.631631417788222
6.42,3,0.224016032390311,-0.347046316924548,-0.0366934212266406,0.0819320251065605,-0.164769432660909,-0.0422477899512721,0.00886054058453118,-0.163345235552029,-0.00554419588813949,0.0176193528041424,-0.93649098178045,-0.0243741162348298,0.182114118879767,-0.0416679382712282,-0.0182398958301543,-0.0299081392864772,0.555986205633717
6.45,3,0.160740989410077,-0.21561326944792,0.0403861608732363,0.0363068534399447,-0.145959857987203,-0.0181992044841863,-0.0199896237067782,-0.153050325022126,-0.0189723400575783,0.0097964415417951,-0.666829432050539,0.00177007354960784,0.0950244656717632,-0.065523239844966,0.0556962797936949,-0.00202439446190781,0.399833165481531
6.48,1,0.146275215918455,-0.0355744092125207,0.0533870459100111,0.0115054780724509,-0.0517492192347992,0.00601214636677145,-0.06544185715303,-0.15113783176163,-0.0373241370891446,-0.0972319711905271,-0.0853806166773481,0.164342173528245,0.0633869441816462,-0.0826949878434604,0.0522985524053672,0.00855535548977121,0.261981058178452
6.51,1,0.14681437625253,0.0223293760999379,0.0349131748405408,0.0154118472853786,0.0301929787082532,-0.00145471561835587,0.0286365347249774,-0.145522426018047,0.0231432030192979,-0.0553097120069989,0.156305632699566,0.123376160974965,0.0679240292570777,-0.0786563717561368,0.0226955982136499,-0.0202642902920621,0.199062064475438
6.54,1,0.148218227688426,0.0206101667327901,0.000376394950203965,0.02198349965921,0.0170496739605904,-0.0237230546993418,-0.00249234494053977,-0.155695262510046,-0.0177515996785384,-0.0494196396781315,0.136285490483311,0.00914538000630716,0.0774458042135889,-0.0705384482355215,0.00189214758751183,-0.0296741640471613,0.242052471490626
6.57,1,0.144810327463607,0.00143436994537187,0.00745668914863531,0.0245775729646697,0.0141504155603707,-0.02167831456445,0.00768049155145929,-0.159764397106845,0.0156153040152186,0.0101219723095391,0.105146437981302,0.0170598467970824,0.0812606178980885,-0.0633157343262022,0.00908434298735517,-0.0232449313842179,0.428123823765781
6.6,1,0.144037191890215,0.00574765261797947,0.00506607257301553,0.0364797916603086,0.0488499608345795,-0.0424614195176041,-0.0175888342946664,-0.179418317209387,-0.00375377666554765,0.0465000356049277,0.253659677927997,0.032237718843145,0.0879441714733319,-0.0558895636870429,0.0021973326822718,-0.0551571194596189,0.65279091769158
6.63,1,0.147251808221686,0.00776187424339529,-0.000996937976215908,0.0494196396781315,0.0364797916603086,-0.0623798333689383,0.00902330596840317,-0.170344147058524,-0.0116885891293069,0.0265002390616576,0.288328704692729,0.00118004903307189,0.106194240139978,-0.0408439385153762,-0.00499486271757154,-0.0621153396201463,0.759768466241442
6.66,1,0.166173284096805,0.0521357870214952,-0.0306100650044252,0.0605690684733624,0.0402437411623483,-0.0664794864752139,0.010406811731315,-0.156142867315694,-0.00554419588813949,0.0180669576097903,0.224361908831039,-0.00777204707988728,0.120639667958617,-0.0453098137353638,-0.0462050233466597,-0.0694703004038616,0.787316507461776
6.69,1,0.170618813643808,0.00723288674581133,-0.0428988514867601,0.0697144484796696,0.0246793013295897,-0.0698365225175736,0.032787052013713,-0.152846868292286,-0.00550350454217149,0.010467848750267,0.0790327667063407,-0.00223802402823979,0.133650725831884,-0.0367646310820846,-0.0375886308379365,-0.0692464980010376,0.789473148798079
6.72,1,0.173100985747856,0.000783308409883928,-0.0351776685893328,0.075736767682933,0.0183009328491063,-0.0686259549750257,0.00182093773206783,-0.162612791324605,-0.00725323241879533,0.0172327850174464,0.0965707368185471,0.0170293282876064,0.127953937396364,-0.0448723817662079,-0.0380464084800765,-0.0693990905484176,0.787062186549476
6.75,1,0.175064343190812,-0.000183111056855983,-0.0462558875291198,0.0795007171849727,0.0101321451460311,-0.0675883256528418,0.0136621194087547,-0.159927162490717,-0.0087181208736432,0.00253303628650777,0.0973133538824631,0.00440483820103559,0.126082135481836,-0.0487584053061515,-0.0470900601214637,-0.0667439802240059,0.785699026459548
6.78,1,0.1764783674632,-0.000935900957263914,-0.0514135156305633,0.0834172592343923,0.0135603910438348,-0.0733461511073133,0.0124413790297149,-0.159723705760877,-0.0064800968454034,0.00318409782199571,0.105980610573646,0.00821965188553524,0.125502283801792,-0.0507115899126153,-0.0526546016825872,-0.0752891628772851,0.788028606016215
6.81,1,0.178248441012808,0.000142419710887987,-0.0605283771273944,0.08691671498764,0.0116784162928149,-0.0755027924436171,0.021637623218482,-0.159357483647165,-0.0053814305042675,0.0065004425183874,0.0924405652027955,0.0121768852809229,0.125380209763888,-0.0526139103366192,-0.0614642780846583,-0.0750653604744611,0.791578925951923
6.84,1,0.178696045818456,-0.00299081392864772,-0.0681071403139337,0.0914436272265796,0.0153813287759026,-0.0827051606799524,0.0190333770765302,-0.162327951902829,-0.00558488723410749,0.00262459181493576,0.0819523707795445,0.0076398002054913,0.128309986673584,-0.0501826024150314,-0.0677816095461898,-0.0842209133172603,0.789493494471063
6.87,1,0.177048046306752,-0.00910468866033916,-0.0690226955982137,0.0963469344157231,0.0144962920010987,-0.0905687632882677,0.0172836491999064,-0.161188594215725,-0.00786360260831528,-0.000996937976215908,0.0914436272265796,0.00286873989074374,0.12747581408124,-0.0493586026591795,-0.0695516830957976,-0.0903042695394757,0.789371420433159
6.9,1,0.174260689107944,-0.0121972309539069,-0.0708131148208055,0.101606290882087,0.0161544643492945,-0.0963367615792311,0.0145980203660187,-0.160537532680237,-0.00672424492121138,0.000305185094759972,0.100548315886919,0.000284839421775974,0.129317097486292,-0.0447197892188279,-0.0716574602496414,-0.0970488601336711,0.80108035523545
6.93,1,0.169682912686544,-0.0191554511144342,-0.0746381013417971,0.105044709616382,0.00644957833592741,-0.097354045228431,0.0204575741854101,-0.158909878841517,-0.0065614795373394,0.00182093773206783,0.0903754793949197,0.00185145624154383,0.130161442915128,-0.0392976673685924,-0.0742311878821172,-0.0972828353729871,0.807662180445774
6.96,1,0.162897630746381,-0.0250963876257617,-0.0721559292377494,0.109185054068626,0.0152185633920306,-0.10325429039379,0.0188706116926583,-0.160171310566525,-0.00603249203975545,0.00136316008992787,0.0900702943001597,-0.00305185094759972,0.134423861405276,-0.0282499669382814,-0.0724204229865413,-0.105858536535742,0.80235195979695
6.99,1,0.156992299162776,-0.0232805363119399,-0.075752026937671,0.112369151890622,0.00967436750389111,-0.106728314055808,0.0243639433983378,-0.158991261533453,-0.00845362712485122,-0.00302133243812372,0.104113895077364,-0.00630207220679342,0.135578478347118,-0.021159499903358,-0.075894446648559,-0.106372264778588,0.813786228013957
7.02,1,0.151636300749738,-0.0206661173334961,-0.0794040752382987,0.117033397422203,0.0138452304656107,-0.115705842259997,0.0198065126499222,-0.160415458642333,-0.0076194545325073,-0.00794498530025127,0.119551174453973,-0.00460829493087558,0.138548946602781,-0.0128330332346568,-0.0794752850937427,-0.116428113650929,0.812875759147923
7.05,1,0.14711956134729,-0.0177058219143244,-0.0801568651387066,0.122252062542599,0.0156153040152186,-0.122231716869615,0.021393475142674,-0.159703360087893,-0.00739565212968332,-0.00816370128482925,0.121112704855495,-0.00579851680043947,0.142160303557441,-0.00470493687754957,-0.0797448652607807,-0.123355815301981,0.816354869228187
7.08,1,0.144601784315521,-0.0102593056021811,-0.0821507410911384,0.126422925504318,0.00989308348846909,-0.124861395102797,0.0196437472660502,-0.160130619220557,-0.00853500981678721,-0.0150201930804366,0.13080741803237,-0.00283313496302174,0.143930377107049,-0.000457777642139958,-0.0821405682546465,-0.124469740897855,0.816482029684337
7.11,1,0.142567217017121,-0.00860621967223121,-0.0823389385662404,0.129220455539618,0.010437330240791,-0.122918383332825,0.0290637938576413,-0.157099113945942,-0.00391654204941964,-0.0207932777896461,0.127582628864406,-0.00773644215216529,0.151666819259214,0.00918098493402916,-0.0822880743837804,-0.123650827560249,0.817194128238777
7.14,1,0.141031118706829,-0.00742617063915932,-0.0821863460188604,0.1326130965097,0.00557980081586149,-0.128355764437798,0.032400484227017,-0.161982075462101,-0.00794498530025127,-0.0263832514419996,0.0845108391572822,-0.00595110934781945,0.158090965503911,0.0171259702342804,-0.0821456546728924,-0.128014974415316,0.813155512151453
7.17,1,0.136829737235633,-0.0141605883968627,-0.0767845698416089,0.133650725831884,0.00423698639891761,-0.122048605812759,0.0394400870794804,-0.156142867315694,-0.00515762810144353,-0.0187027598905403,0.0210272530289621,0.00368256681010366,0.165939308857489,0.0291756950590533,-0.0771507919553209,-0.123584704123051,0.803821934670044
7.2,1,0.125497197383546,-0.0379192480239265,-0.0610624510432244,0.133569343139948,-0.0064800968454034,-0.122567420473851,0.0382803837193925,-0.162775556708477,-0.0115868607643869,-0.0425682343007701,-0.107008067059338,0.00530004781233151,0.168167160049237,0.0427259132663961,-0.0599637847020885,-0.122501297036653,0.786584063234352
7.23,1,0.107582832321136,-0.0571357361573127,-0.0419120863470361,0.127292703024384,-0.0259661651458276,-0.100441501103753,0.0243029063793858,-0.167658518224637,-0.00460829493087558,-0.0555386008280689,-0.213990702027446,-6.10370189519944e-05,0.158162175359355,0.0506403800571713,-0.0389009267454044,-0.101199377422407,0.667963703319396
7.26,1,0.0806858526362906,-0.0861944435967081,-0.021429080070396,0.11083305358033,-0.0628020060833562,-0.0643279315571561,0.0263578193507696,-0.177159947508164,-0.0133569343139948,-0.0501419110690634,-0.307916501358074,0.0373699148533586,0.142307809686575,0.0617084261604663,-0.00909960224209316,-0.0614337595751824,0.451312804549293
7.29,3,0.0562557858007548,-0.0753247678050071,0.00642923266294341,0.0857977029735201,-0.0878271838536739,-0.0341247800124109,0.0119734285510829,-0.214575640125736,-0.0289417198197373,0.0157119459618926,-0.32919298888109,0.24359874263741,0.122704753766493,0.0665201778211819,0.00593585009308145,-0.021281573941262,0.181890316476943
7.32,3,0.0446028015991699,-0.0268664611753695,-0.00629189937030142,0.0581428469700207,-0.0701722261218096,0.00165308592994985,0.0404370250556963,-0.28375092827133,-0.032888780378633,0.00568152918078148,-0.181524094363231,0.557873266802983,0.105533005767998,0.0612506485183264,-0.0123498235012869,-0.000127160456149988,0.0388856674906664
7.35,3,0.0279091769157994,-0.0373088778344066,-0.00613422040467544,0.0425021108635721,-0.0312458672851751,-0.00535599841303751,0.0175888342946664,-0.214128035320088,-0.00306202378409172,0.0283160903754794,-0.0690277820164597,0.639454329050569,0.100075278990041,0.0722118798384554,-0.000610370189519944,-0.0153101189204586,0.00802636799218726
7.38,3,0.010656046225369,-0.0444959868160039,0.010401725313069,0.0357829523606067,-0.010828984445733,-0.0144708599098687,0.0161646371857865,-0.199011200292978,0.0339671010467849,0.0151778720460626,0.00951668853826512,0.231930499181087,0.097893205562507,0.087303282774336,0.0158289335815505,-0.0235806349884538,0.00289417198197373
7.41,3,0.00608335622221544,-0.00470493687754957,0.0191707103691722,0.0263985106967376,-0.0316070029806411,-0.010951058483637,0.0134790083518988,-0.199519842117578,0.0292672505874813,0.00812300993886125,0.164448988311411,-0.220526749473556,0.103488265633106,0.097496464939319,0.0476088747825556,0.0316120893988871,0.00187688833277383
7.44,3,0.043351542710654,0.136733095288959,0.121438235623239,0.0393841364787744,0.106987721386354,0.100202439446191,0.183182266711427,-0.26568397066154,0.0200506607257302,-0.0752993357137771,0.941526535843989,-0.329503260394096,0.131616158533484,0.0883816034424879,0.123213395591093,0.123060803043713,0.00167851802117985
7.47,3,0.153269041006704,0.378419344665873,0.0508947009694713,0.119510483108005,0.306950081891334,0.0136163416445407,0.100192266609699,-0.302082379629912,-9.15555284279916e-05,0.145313882869961,1.61274554684083,5.08641824599953e-06,0.21434166488642,0.0611641794081444,0.0471612699769077,-0.000910468866033916,0.00167851802117985
7.5,3,0.2786390779341,0.436557105217648,0.0223954995371359,0.195318460646382,0.240923286640014,-0.0188706116926583,-0.00499486271757154,-0.263283181249428,-0.0118106631672109,0.0117597989847509,1.65070039979247,0.0721101514735354,0.315215511541083,0.0366679891354106,0.0197403892127242,-0.0282296212652974,0.00167851802117985
7.53,3,0.400382498652099,0.427808465834529,0.0186213771986043,0.234728029216386,0.11391033661916,-0.0131331319111708,-0.022207302062034,-0.226070945361695,0.000640888698995941,-0.0173955504013184,1.54263435773797,0.021337524541968,0.411216569516078,0.010930712810653,0.0142521439252907,-0.00663777581102939,0.00167851802117985
7.56,3,0.518046611936806,0.413266396069216,0.0148828597877946,0.248379975788649,0.0411542100283822,0.00516271451968953,-0.0126041444135868,-0.205196284880113,0.00993886125268309,-0.0807570624917346,1.40682699056978,-0.0883765170242419,0.498764000366222,-0.0190384634947762,0.00825525681325724,0.0149693288979766,0.00167851802117985
7.59,3,0.628167566962696,0.386328725038402,0.00660725730155339,0.254946541744235,0.0263425600960316,0.0114291817987609,-0.0294503616443373,-0.19571520126957,0.00928779971719515,-0.123884802799565,1.27659942421745,-0.178370515050712,0.579465112257251,-0.0484786523026215,0.00424207281716361,0.0177210811690624,0.00167851802117985
7.62,3,0.729778944263029,0.349976093834244,0.0010935799228899,0.258135725984476,0.0134484898424228,0.0163833531703645,-0.0409049755343282,-0.165461185542365,0.000457777642139958,-0.104480117191076,1.09887488428398,-0.165100049846899,0.650817387412132,-0.0787275816115807,0.00114953052359589,0.0201218705811742,0.00167851802117985
7.65,3,0.826461582282988,0.324605039623198,-0.00291960407320373,0.261604663228248,0.0173141677093824,0.0188451796014283,-0.123772901598153,-0.0781985941139968,0.00603249203975545,-0.107277647226376,0.610049745170446,-0.0884833318074079,0.702190211696727,-0.124032308928699,-0.00378429517502365,0.0180313526820683,0.00167851802117985
7.68,3,0.918871628976307,0.308008056886502,-0.0166376740826645,0.263206884975738,0.00564592425305948,0.0182093773206783,-0.0673543504135258,-0.136956897691783,0.0229194006164739,-0.168970814132104,0.268084760073651,-0.065609708955148,0.727551093071281,-0.191081474247464,-0.0202846359650461,0.0195115003916542,0.00167851802117985
7.71,3,0.987736645608895,0.233954893642994,-0.0160018718019145,0.262311675364442,0.000152592547379986,0.0210323394472081,-0.111504460788802,-0.075696076336965,0.0199285866878262,-0.255877356283252,-0.272118289742729,-0.17106133203121,0.726788130334381,-0.260704367198706,-0.0148828597877946,0.0230872524185919,0.00167851802117985
7.74,3,1.03650013733329,0.165247555976033,-0.00949125644703513,0.261940366832484,0.00148014770958586,0.0232093264564959,-0.0464389985859757,-0.10808638772749,0.021210364085818,-0.344355601672414,-0.689285968606626,-0.205028433077995,0.6965035960977,-0.339767652414523,-0.0065513067008474,0.0234992522965178,0.00167851802117985
7.77,3,1.06561479537339,0.100711081270791,0.00175990071311584,0.263323872595396,0.00665812148401339,0.021464684998118,-0.0233466597491379,-0.0931323180842514,0.0065614795373394,-0.398546301665293,-1.07127089246295,-0.17719046601764,0.642760500910469,-0.422661010569577,0.00526952930285552,0.0197658213039542,0.00167851802117985
7.8,3,1.07867671742912,0.0510879848628193,0.00272123376160975,0.26227607043672,-0.00117496261482589,0.0132958972950428,0.0279244361705374,-0.129856257820368,-0.010834070863979,-0.379711294900357,-1.34548478652303,-0.0748364716533911,0.56849370810063,-0.509943947670929,-0.0086926887824132,-0.0236976226081118,0.00167851802117985
7.83,3,1.06230353709525,-0.04378897467981,-0.0142674031800287,0.254366690064191,-0.0376750999481185,-0.0232449313842179,0.0472731711783197,-0.137058626056703,-0.0224514501378419,-0.359645374919889,-1.48270109154536,0.0365408286792606,0.478631956948556,-0.583401999979654,-0.00933866389965514,-0.0449029002756839,0.00167851802117985
7.86,3,1.0252438937549,-0.115110731325215,0.00730918301950133,0.228415784173101,-0.103310240994496,-0.0194758954639322,0.36812443413597,-0.194616534928434,-0.0312611265399131,-0.209789320556251,-1.26366974903612,-0.0460015666168198,0.379553615934731,-0.645420697653127,0.010935799228899,-0.00822473830378124,0.00167851802117985
7.89,3,1.00302641885637,-0.0752739036225471,0.010635700552385,0.199509669281086,-0.0891801711071098,0.00662251655629139,0.290180160934273,-0.0624713888973663,-0.0829187902462844,-0.211259295429345,-0.378287097791477,-0.0526851201920632,0.337987406028423,-0.664764346242663,0.00900804671366517,0.00808740501113926,0.00167851802117985
7.92,3,1.01192256436862,0.0173548590553504,-0.00458794925789158,0.187108981597339,-0.0339772738832769,-0.00120548112430189,-0.00711081270790735,-0.0397249265012563,-0.0253201900285857,-0.164677877132481,-0.605878882208726,0.0971251564073611,0.309045686208686,-0.702632730084129,-0.0114851323994669,-0.00459812209438358,0.00167851802117985
7.95,3,1.01055431786045,-0.00339772738832769,-0.010859502955209,0.185425377157913,-0.00333160395112969,-0.00552385021515549,0.0689209672332936,-0.0942106387524033,-0.0406201361125523,0.0663624988555559,-0.797911516668192,0.00459812209438358,0.265821303954182,-0.744493952248706,-0.0101168858912931,-0.0149235511337626,0.00167851802117985
7.98,3,0.98203477075513,-0.086540320037436,0.00262459181493576,0.186264636168503,0.000152592547379986,-0.011210465814183,0.0934985401979634,-0.120578630939665,-0.0378531245867285,0.0931323180842514,-0.689301227861364,0.145013784193447,0.222103539129816,-0.759687083549506,0.00797550380972727,-0.0177312540055544,0.00167851802117985
8.01,3,0.944710633665985,-0.117333496098717,0.0174565874202704,0.184993031607003,-0.0076398002054913,-0.0145268105105747,0.0839360738954843,-0.149428795230974,-0.0157984150720745,0.243079927976318,-0.601947080904569,0.108564511042614,0.182571896521907,-0.761914934741254,0.0207831049531541,-0.0143538722902107,0.00167851802117985
8.04,3,0.918810591957355,-0.0837326171656443,0.0184230068870103,0.182683797723319,-0.0124108605202389,-0.0140893785414187,0.087394838302764,-0.193497522914314,0.000722271390931934,0.227607043671987,-0.448205003000987,0.17429120761742,0.151209041617074,-0.767377747937457,0.0175379701122064,-0.0125227617216508,0.00167851802117985
8.07,3,0.905056917020173,-0.0433566291289,0.0130008850367748,0.178655354472488,-0.0164799951170385,-0.011078218939787,0.0702230903042695,-0.192846461378826,0.0171208838160344,0.205114902188177,-0.273323770867031,0.124098432365897,0.130212307097588,-0.774590289010285,0.010366120385347,-0.00782291126234728,0.00167851802117985
8.1,3,0.89583015432193,-0.0276294239122695,0.0087181208736432,0.17184972685934,-0.0242011780144658,-0.00391654204941964,0.0235501164789778,-0.163630074973805,0.0333160395112969,0.149266029847102,-0.230414746543779,0.0411491236101362,0.115543076876125,-0.780022583697012,0.00799584948271126,-0.00165817234819585,0.00167851802117985
8.13,3,0.894294056011638,-0.00346893724377168,0.00551367737866349,0.167719555243589,-0.00947091077405113,-0.00151575263730786,0.032705669321777,-0.179092786441644,0.0394197414064964,0.0578122297840307,-0.196691793572802,-0.0335703604235969,0.102287870927051,-0.791802728354747,0.00310271513005971,-0.00371308531957966,0.00167851802117985
8.16,3,0.893500574765262,6.10370189519944e-05,0.00205491297138381,0.167709382407097,0.000142419710887987,-0.00456760358490758,0.021719005910418,-0.151219214453566,0.0300607318338572,-0.00318409782199571,-0.186529129917295,-0.0956246630247912,0.0931730094302194,-0.80011393576871,0.00198370311593982,-0.0076296273689993,0.00167851802117985
8.19,3,0.89288003173925,0.000152592547379986,0.00197353027944782,0.166570024719993,-0.00087486393831192,-0.00299081392864772,0.0305083366395052,-0.127536851100192,0.0149642424797306,-0.0182704143396303,-0.181564785709199,-0.0880560726747439,0.086998097679576,-0.805668304493342,0.00198370311593982,-0.00638854131697541,0.00167851802117985
8.22,3,0.890662353383994,-0.00568661559902748,0.00279753003529974,0.166386913663137,-0.00197353027944782,-0.00269580167037975,0.0608640807316304,-0.113416954049298,0.00442518387401959,0.00902330596840317,-0.143609932757551,-0.0412305063020722,0.0775170140690329,-0.812911364075645,0.00316375214901171,-0.00571713410850347,0.00167851802117985
8.25,3,0.886766157007558,-0.0097862687053031,0.00447604805647959,0.166071555731885,-0.00448622089297159,-0.00227871537420779,0.0855637277342041,-0.116550187688833,0.000681580044963937,0.0409660125532802,-0.0455234433016958,-0.0189011302021343,0.111606189153722,-0.774936165451013,0.00458794925789158,-0.00629698578854742,0.00167851802117985
8.28,3,0.880021566413363,-0.0197759941404462,0.00555436872463149,0.166020691549425,0.00011190120141199,-0.00357066560869167,0.0808028402559486,-0.11398663289285,0.000681580044963937,0.0631936602882982,0.0464491714224677,-0.0195623645741142,0.173619800408948,-0.706188136438083,0.00725323241879533,-0.0065309610278634,0.00167851802117985
8.31,3,0.871537420779036,-0.0256253751233456,0.00822982472202724,0.166244493952249,0.000152592547379986,-0.00513728242845953,0.0788496556494847,-0.119520655944497,0.00271614734336375,0.0795312356944487,0.131219417910296,-0.00999989827163508,0.227495142470575,-0.643777784559669,0.00939970091860714,-0.00713115838089134,0.00167851802117985
8.34,3,0.862269966734825,-0.0299081392864772,0.0100507624540951,0.166447950682089,0.000152592547379986,-0.00596128218431145,0.0370596433403526,-0.164321827855261,0.0418612221645761,0.0197047842850022,0.19118828903063,0.0457574185410118,0.270109154535559,-0.591947182632934,0.011078218939787,-0.00717184972685934,0.00167851802117985
8.37,3,0.854009623503321,-0.0270190537227495,0.0116275521103549,0.166926073997213,0.000152592547379986,-0.0065309610278634,-0.143813389487391,-0.296283862829473,0.0680257576219978,0.00478123315123956,0.0924609108757795,-0.054678996144495,0.281980854721722,-0.571784620705791,0.0119327372051149,-0.00732444227423933,0.00187180191452783
8.4,3,0.855047252825505,0.00053916033407595,0.00969471317687511,0.166529333374025,-0.00187180191452783,-0.00679545477665537,0.0714438306833094,-0.163996297087517,-0.0571815139215267,0.126723024180832,0.199235002695802,0.231482894375439,0.290698975595365,-0.56409395631784,0.00679545477665537,-0.00735496078371532,0.00196335744295582
8.43,3,0.860601621550137,0.010447503077283,0.00503555406353954,0.165359457177445,0.00147506129133986,-0.00254320912299977,0.00259407330545976,-0.126397493413088,0.0475580106000956,0.087008270516068,0.153487756991282,0.143101290932951,0.301197342855108,-0.559200821965188,0.00334686320586769,-0.00583920814640746,0.00167851802117985
8.46,3,0.863266904711041,0.00134281441694388,0.00416069012522762,0.165542568234301,-0.00295012258267973,-0.00395723339538764,0.0145166376740827,-0.186254463332011,-0.0294707073173213,0.0928678243354595,0.180252489801731,0.144057537563199,0.306477044994456,-0.556545711640777,0.00487278867966755,-0.00513728242845953,0.00167851802117985
8.49,3,0.868485569831436,0.00555436872463149,0.00484227017019155,0.166895555487737,0.00381481368449965,-0.00348928291675568,0.0264392020427056,-0.154759361552782,0.0120344655700349,0.0609454634235664,0.158065533412681,0.0634378083641062,0.294747764519181,-0.573483484399955,0.00419120863470361,-0.00936918240913114,0.00306202378409172
8.52,3,0.879634998626667,0.0249539679148737,0.000579851680043947,0.167373678802861,0.000152592547379986,-0.00612404756818344,0.022044536678162,-0.167495752840765,-0.011281675669627,0.02142399365215,0.165654469435713,0.0300810775068412,0.301390626748456,-0.578020569475387,-0.000559506007059949,-0.0076296273689993,0.0122480951363669
8.55,3,0.892788476210822,0.0341909034496089,-0.00282804854477574,0.168309579760125,0.000152592547379986,-0.00699891150649536,0.0209051789910581,-0.15622425000763,-5.08641824599953e-05,-0.00261441897844376,0.187271746981211,0.0171615751620024,0.311960203863643,-0.580543432925403,-0.00384533219397565,-0.00796533097323527,0.0369986063214006
8.58,3,0.906593015330465,0.0387585070345164,-0.00446587521998759,0.169591357158116,0.000152592547379986,-0.00740582496617532,0.0271309549241615,-0.165827407656077,0.00182093773206783,0.0097760958688111,0.204351939451277,0.0021871598457798,0.323831904049806,-0.582527136041342,-0.00612404756818344,-0.00863673818170721,0.0633665985086622
8.61,3,0.918922493158768,0.0337534714804529,-0.00633767713451542,0.172215948973052,0.00700908434298736,-0.0086265653452152,0.0349030020040488,-0.150079856766462,-0.000457777642139958,0.0227159438866339,0.202490310373241,0.0121972309539069,0.336171554714601,-0.582547481714326,-0.00719219539984334,-0.0119632557145909,0.0798771121351766
8.64,3,0.929461551764479,0.0299081392864772,-0.00631733146153142,0.17591886145614,0.00799584948271126,-0.0114444410534989,0.0316883856725771,-0.171483504745628,0.00267545599739575,0.0300302133243812,0.208431246884569,-0.00696839299701936,0.348236538794112,-0.580991037731051,-0.00629698578854742,-0.0147200944039226,0.0878220974354279
8.67,3,0.946348460341197,0.0512609230831833,-0.00945056510106713,0.180293181147699,0.00939970091860714,-0.0146081932025107,0.0355540635395367,-0.147760450046286,-0.00208543148085981,0.0426852219204281,0.23418886888231,0.0242622150334178,0.361746065655487,-0.58439893795587,-0.0175379701122064,-0.0177515996785384,0.0903449608854437
8.7,3,0.95542263049206,0.0263679921872616,-0.0455437889746798,0.188207647938475,0.0275785597298095,-0.0187383648182623,0.053865169225135,-0.137180700094607,-0.000661234371979939,0.0318409782199571,0.211971393983784,0.021637623218482,0.375947345398317,-0.579251482690919,-0.0533463545640431,-0.0233873510951059,0.0961536505223752
8.73,3,0.956531469669688,0.000447604805647959,-0.0489516891994995,0.202948088015381,0.0515355896684673,-0.0274870042013815,0.043895789462976,-0.158096051922157,0.00344859157078768,0.0209255246640421,0.193995991902422,-0.0210679443749301,0.385286009297973,-0.570991139459415,-0.0485244300668355,-0.0348317921486048,0.121819716991689
8.76,3,0.963184504735455,0.0158594520910265,-0.0620339569282103,0.22054709514654,0.0555029959003469,-0.0382091738639485,0.0344960885443688,-0.155980101931822,-0.00468967762281157,0.0304778181300292,0.196010213527838,0.00519831944741152,0.393932920316172,-0.569007436343476,-0.0670796838282418,-0.0485244300668355,0.136499120049643
8.79,3,0.964710430209255,-0.000142419710887987,-0.104770043031098,0.231482894375439,0.0269376710308135,-0.0534582557654551,0.0421867529323201,-0.166519160537533,0.00275683868933175,0.0368460137740206,0.141911069063387,0.00190232042400382,0.401145461388999,-0.563341166417432,-0.106011129083122,-0.0574154891608427,0.171117282631916
8.82,3,0.966195664337087,-0.00076296273689993,-0.12793359172338,0.235175634022034,0.00488296151615955,-0.0594195379497665,0.0447503077283039,-0.157770521154413,-0.00253303628650777,0.0457777642139958,0.114922533850113,0.00927762688070314,0.406364126509395,-0.559587389751884,-0.134525589770196,-0.0609658090965504,0.209255246640421
8.85,3,0.959552802107812,-0.0290637938576413,-0.183874019592883,0.236243781853694,0.000152592547379986,-0.0660827458520259,0.0586667480493586,-0.137302774132511,-0.00497451704458754,0.0504267504908394,0.0533768730735191,0.0372834457431766,0.402864670756147,-0.556464328948841,-0.189082511876787,-0.0668151900794498,0.244636371959594
8.88,3,0.942823572496719,-0.065563931190934,-0.222947884558651,0.239361756238492,0.00795515813674327,-0.0730918301950133,0.0612303028453424,-0.159947508163701,-0.00127160456149988,0.0413373210852382,-0.0511286762087873,0.0302743614001892,0.403057954649495,-0.53951638335317,-0.225826797285887,-0.0750602740562151,0.301146478672648
8.91,3,0.905636768700217,-0.138559119439273,-0.238013855403302,0.238903978596352,-0.00846379996134322,-0.0798059022797327,0.0815556301563565,-0.118971322773929,-0.00666320790225939,0.0342265083773308,-0.257459232357758,0.0609912411877804,0.399665313679413,-0.505701874853765,-0.235862300485244,-0.0795414085309407,0.364268929105503
8.94,3,0.85008290861741,-0.19668162073631,-0.239610990732546,0.235908078249458,-0.0157119459618926,-0.0766370637124749,0.0495518865525274,-0.143732006795455,-0.00727357809177933,0.0529292682678711,-0.414014099551378,0.0751416567481511,0.390937019969278,-0.45888139489934,-0.251274147770623,-0.0862605670339061,0.457350383007294
8.97,3,0.77706228827784,-0.258166244493952,-0.240969064404228,0.218288725445316,-0.0787784457940408,-0.0736615090385652,0.0279040904975534,-0.177933083081556,-0.00114953052359589,0.0503606270536414,-0.607038585568814,0.0247810296945097,0.356151005584887,-0.420667134617145,-0.260536515396588,-0.0823440249844864,0.528717917416913
9,3,0.698583941160314,-0.27960549740084,-0.242210150456252,0.179555650502029,-0.148350474562822,-0.0673848689230018,0.021413820815658,-0.170751060518204,-0.00940987375509914,0.0337127801344849,-0.733191930906095,0.0136417737357707,0.307748649555956,-0.390606402783288,-0.274208807641835,-0.0718558305612354,0.589286985890276
9.03,3,0.60556861069572,-0.326527705720186,-0.237464522232734,0.13078198594114,-0.165120395519883,-0.0585395875932086,0.0457269000315358,-0.147760450046286,-0.0162256742047385,0.00716676330861334,-0.829213334554074,0.0054475539414655,0.254753257850887,-0.350601723278502,-0.274208807641835,-0.0479344055502996,0.64760277108066
9.06,3,0.499811802524898,-0.36873480432549,-0.199550360627054,0.0918708863592435,-0.126997690766116,-0.0419324320200201,0.0133772799869788,-0.166580197556485,-0.00473036896877956,-0.0404115929644663,-0.896206549272134,-0.0354879401023387,0.202164779605497,-0.297402874843593,-0.274208807641835,-0.0363526312041587,0.675832392345958
9.09,3,0.380133467614775,-0.41287982828252,-0.157882422355825,0.0518865525274412,-0.139540798160751,-0.0303760897651092,-0.00997955259865108,-0.166600543229469,-0.00379446801151565,-0.0173548590553504,-0.990819015065971,-0.00448622089297159,0.130710776085696,-0.249153111362041,-0.26558224229662,-0.0177872046062604,0.682114118879767
9.12,3,0.246630247912025,-0.460595517848242,-0.111718090355134,0.000971505884985911,-0.168579159927162,9.15555284279916e-05,0.0180160934273303,-0.15713980529191,-0.00336720887885169,-0.0170089826146224,-1.10172327850174,-0.0205542161320841,0.0592771182388786,-0.187083549506109,-0.136819564399141,0.0134688355154068,0.661102125105543
9.15,3,0.107989745780816,-0.475386822107608,-0.0124820703756829,-0.0458337148147018,-0.143131809442427,0.0196183151748202,-0.00611387473169144,-0.166600543229469,0.00163782667521185,-0.0392925809503464,-1.07641326130965,0.0736920275480412,-0.0126143172500788,-0.120476902574745,0.0465661590421257,0.0414593951231422,0.60602638833786
9.18,3,0.0351471500798568,-0.24425997700939,0.128182826217434,-0.0788191371400087,-0.0792463962726727,0.043387147638376,-0.0799686676636047,-0.170283110039572,-0.00631733146153142,-0.113742484817042,-0.503428245897804,0.0794752850937427,-0.0662455112358979,-0.101341797133295,0.134530676188442,0.0597501551357565,0.535686310413933
9.21,1,0.0317443362732831,-0.000996937976215908,0.100355031993571,-0.0745923235775831,0.0499231950844854,0.0468459120456557,-0.0836105431277403,-0.127699616484064,0.00593076367483545,-0.126285592211676,0.297687714265369,0.313643808303069,-0.0659708446506139,-0.097654143904945,0.101941994486323,0.0484176152836695,0.47829625334432
9.24,1,0.0556861069572029,0.100192266609699,0.0485498621580655,-0.0506556393119093,0.0945209102654093,0.0317901140374971,-0.101189204585915,-0.13012075156916,-0.00965402183090711,-0.0569627979369488,0.572044028036337,0.0171310566525264,-0.0381481368449965,-0.0937477746920174,0.0197251299579862,-0.00428276416313161,0.464700257372763
9.27,1,0.0717490157780694,0.0671508936836858,-0.0287382630898974,-0.0410677409182002,0.0154118472853786,0.00305185094759972,-0.0245267087822097,-0.144342376984975,0.00556454156112349,-0.0252184616636657,0.506327504298023,0.043722851242612,-0.00509150466424553,-0.0766930143131809,-0.0253201900285857,0.00524409721162552,0.539740185755994
9.3,1,0.0702281767225155,-0.000549333170567949,0.00489822077089755,-0.0456912951038138,-0.00146997487309386,0.0226345611946979,0.0366120385347046,-0.178482416252124,0.0133365886410108,0.0299691763054292,0.350637328206224,0.0225124871567939,0.0205338704591001,-0.0494196396781315,0.0164393037710705,0.0373190506708986,0.727703685618661
9.33,1,0.0917335530666016,0.065019684438612,-0.0182042909024323,-0.0278633991515854,0.0748924222540971,0.0137384156824447,-0.0374462111270486,-0.171666615802484,-0.000783308409883928,0.0884477268796859,0.473377686900438,0.0429446292509741,0.043478703166804,-0.0480208746604816,-0.033122755617949,-0.0270851771599475,0.892203538112532
9.36,1,0.104561499883012,0.0383210750653605,-0.0367290261543626,-0.00498468988107954,0.0637480798771121,-0.0231025116733299,0.00155644398327586,-0.158136743268125,-0.0102237006744591,0.0395621611173844,0.344391206600136,-0.0185349080884223,0.0696076336965036,-0.0347097181107008,-0.0339620146285389,-0.0470137638477737,0.944603818882819
9.39,1,0.115736360769473,0.0304930773847672,-0.0386364329966124,0.000940987375509913,0.00846888637958922,-0.0161442915128025,0.00340790022481969,-0.160761335083061,-0.00340790022481969,0.0345622119815668,0.274966683960489,-0.00302133243812372,0.087460961739962,-0.0280312509537034,-0.0417900123091322,-0.00497451704458754,0.953866186508784
9.42,1,0.118081199580879,0.00373343099256366,-0.0349843846959848,0.0172989084546444,0.0633665985086622,-0.0135196996978668,0.00985747856074709,-0.154739015879798,-0.000620543026011943,0.0440839869380779,0.216015096489354,0.00531022064882351,0.103727327290668,-0.0140995513779107,-0.032843002614419,-0.0525427004811752,0.938037252927234
9.45,1,0.119515569526251,0.000239061657561978,-0.0334482863856929,0.0295927813552253,0.0197353027944782,-0.043778801843318,-0.0168156987212745,-0.162531408632669,-0.00534073915829951,0.0394502599159724,0.189728486994029,-0.00225836970122379,0.0943072806990773,-0.0249641407513657,-0.0346791996012248,-0.0425580614642781,0.926613157546719
9.48,1,0.120609149449141,4.57777642139958e-05,-0.0381430504267505,0.0335551011688589,0.0174820195115004,-0.0318308053834651,0.0117089348022909,-0.158157088941109,-0.00202439446190781,0.0333058666748049,0.172378714356924,-0.00129703665272988,0.0933256019775994,-0.0270546586504715,-0.0392213710949024,-0.032843002614419,0.920880764183477
9.51,1,0.118844162317779,-0.00767031871496729,-0.0381328775902585,0.043275246436964,0.0262255724763736,-0.0462558875291198,-0.0011088391776279,-0.160720643737093,-0.0054221218502355,0.0301828058717612,0.158838668986073,0.00145980203660187,0.0937528611102634,-0.0248776716411837,-0.0379904578793705,-0.0527003794468012,0.918947925249997
9.54,1,0.118106631672109,-0.00563066499832148,-0.0418917406740521,0.0493280841497035,0.0170038961963764,-0.0498977629932554,0.0154118472853786,-0.157729829808445,-0.00259407330545976,0.0317341634367911,0.123559272031821,0.0043895789462976,0.0927762688070315,-0.0250709555345317,-0.0425021108635721,-0.0505284788557594,0.925560268969797
9.57,1,0.113132114627522,-0.0164393037710705,-0.0387432477797784,0.0563371684926908,0.0173802911465804,-0.0577308470920947,0.00147506129133986,-0.161086865850805,-0.00483209733369956,0.0293638925341553,0.0673848689230018,0.00368256681010366,0.0923083183283995,-0.0205745618050681,-0.0378327789137445,-0.0588854640339366,0.928856267993205
9.6,1,0.104688660339162,-0.0278786584063234,-0.0342417676320688,0.0591245256914986,0.0065207881913714,-0.0511388490452793,0.0152083905555386,-0.158645385092725,-0.00473036896877956,0.0240841903948078,0.0203609322387361,0.00349436933500168,0.086809900204474,-0.0176447848953724,-0.032339447208065,-0.0520645771660512,0.918286690878018
9.63,1,0.0876644184698019,-0.0555386008280689,-0.021342610960214,0.0614286731569363,0.00197861669769382,-0.0553249712617369,0.0130720948922188,-0.159357483647165,-0.00625629444257942,0.0158340199997965,-0.0518204290902432,-0.00205491297138381,0.0851619006927702,-0.00232957955666779,-0.0124871567939289,-0.054399243140965,0.921658986175115
9.66,1,0.0698924731182796,-0.0565304523860388,-0.00340281380657369,0.0621000803654083,0.000152592547379986,-0.0528122806482131,0.0043844925280516,-0.160740989410077,-0.00670389924822738,0.0136977243364767,-0.0724356822412793,0.000996937976215908,0.075980915758741,0.00614947965941343,-0.00188197475101983,-0.0533158360545671,0.924166590370393
9.69,1,0.0568814152450128,-0.0360321868546607,-0.00362661620939767,0.0608589943133844,-0.00748720765811131,-0.0510066021708833,0.00635802280749942,-0.160740989410077,-0.00475071464176356,0.0114037497075309,-0.0771965697195349,-0.00371817173782566,0.0664642272204759,0.00964384899441511,-0.0076194545325073,-0.0482243313903216,0.920779035818557
9.72,1,0.0382091738639485,-0.0492416150395215,-0.0021413820815658,0.0604063030894904,-4.06913459679963e-05,-0.0508641824599953,-0.00611387473169144,-0.162124495172989,-0.00713115838089134,0.010411898149561,-0.00193283893347982,0.00487278867966755,0.0494603310240994,0.011347799106825,0.00227362895596179,-0.0535803298033591,0.923952960804061
9.75,1,0.0155135756502986,-0.0620085248369803,0.0166427605009105,0.0593737601855525,-0.00168869085767184,-0.0501266518143254,0.00483209733369956,-0.159235409609261,-0.00550350454217149,0.0122023173721529,-0.00557471439761549,-0.00279753003529974,0.0479598376415296,0.032542903937905,0.022207302062034,-0.0512100589007233,0.928510391552477
9.78,1,-0.00317392498550371,-0.0516678365428632,0.0258898688721376,0.0590940071820226,-0.00447604805647959,-0.054694255399233,-0.00076296273689993,-0.162490717286701,-0.00615456607765943,0.00916063926104516,0.043346456292408,-0.000915555284279916,0.0387432477797784,0.0421053702403841,0.0276446831670075,-0.0512253181554613,0.926745404421115
9.81,1,-0.0207627592801701,-0.0500707012136194,0.032934558142847,0.0611184016439304,0.00712607196264534,-0.0606504511652984,0.000600197353027945,-0.162205877864925,-0.00698873867000336,0.00487278867966755,0.0638650674967701,-0.00555945514287749,0.0392569760226244,0.0602384512873725,0.0362305571662547,-0.0615863521225623,0.929720959095025
9.84,1,-0.0384634947762485,-0.0507624540950753,0.0468662577186397,0.0624103518784143,0.0065106153548794,-0.0582191432437106,0.00230923388368379,-0.161310668253629,-0.00700908434298736,-0.00259407330545976,0.0937426882737714,-0.000335703604235969,0.0411186051006602,0.0797855566067487,0.0485346029033275,-0.0602028463596505,0.932137007761874
9.87,1,-0.0521968240404472,-0.0384736676127405,0.0509964293343913,0.065228227586698,0.00792463962726727,-0.0662455112358979,-0.00900296029541917,-0.164769432660909,-0.00786360260831528,-0.0165715506454665,0.205338704591001,-0.00269580167037975,0.0390942106387524,0.0915250099185156,0.0524104536067792,-0.0640481785536261,0.93552456231371
9.9,1,-0.053926206244087,0.000274666585283975,0.0390738649657684,0.075777459028901,0.0400911486149683,-0.0926440219326355,0.00747703482161931,-0.160985137485885,-0.00859604683573921,-0.0338958911913409,0.331268247525458,-0.011027354757327,0.0552079836420789,0.109368165125482,0.0342722861415449,-0.0947904904324473,0.945717744478693
9.93,1,-0.0566932177699108,-0.00267545599739575,0.0358592486342967,0.0861537522507401,0.0289722383292133,-0.100884019491155,0.00320444349497971,-0.166681925921405,-0.010630614134139,-0.0646483759066541,0.363078707235939,-0.00568661559902748,0.0688294117048657,0.125756604714092,0.0366323842076886,-0.100293994974619,0.947681101921649
9.96,1,-0.0565609708955148,0.00336720887885169,0.0317595955280211,0.100009155552843,0.0495925778984954,-0.120090334788049,0.0166325876644185,-0.164850815352845,-0.000661234371979939,-0.0730104475030773,0.410626544999542,-0.0125532802311268,0.0951058483636993,0.151910967335022,0.032288583025605,-0.123620309050773,0.943622140161341
9.99,1,-0.0576291187271747,0.000264493748791976,0.0342519404685609,0.111026337473678,0.0262967823318176,-0.122074037903989,0.00287891272723574,-0.183283995076347,-0.00973540452284311,-0.0887885169021678,0.446831670074567,-0.0075685903500473,0.122094383576973,0.179926959033987,0.0349742118594928,-0.121921445356609,0.91527044485814
10.02,1,-0.0534379100924711,0.0159510076194545,0.0312916450493891,0.118411816766869,0.0210781172114221,-0.121799371318705,-0.000335703604235969,-0.194148584449802,0.00275683868933175,-0.0926236762596515,0.551398256375825,-0.0211798455763421,0.151992350026958,0.205664235358745,0.0275683868933175,-0.124413790297149,0.815373190506709
10.05,2,-0.0376089765109205,0.0515762810144353,0.00925728120771915,0.121199173965677,0.00247199926755577,-0.115756706442457,-0.0168970814132104,-0.2185633920306,-0.000457777642139958,-0.0610878831344544,0.761416465753146,-0.0165206864630065,0.19088310393587,0.228685364340139,0.000254320912299977,-0.114790286975717,0.65614795373394
10.08,2,-0.0122277494633829,0.0716778059226254,-0.00808740501113926,0.118544063641265,-0.0159916989654225,-0.101667327901039,0.0562659586372468,-0.184870957569099,-0.0134790083518988,-0.0571001312295907,0.71523178807947,0.0583106987721386,0.237739188818018,0.250160222174749,-0.00642923266294341,-0.106926684367402,0.447848953723767
10.11,2,0.0462762332021037,0.178075502792444,0.00683614612262337,0.0995717235836868,-0.0848719748527482,-0.109571621855322,-0.0254422640664897,-0.224748476617735,0.0264392020427056,-0.043112481053092,0.762372712383394,-0.0580258593503627,0.28044475641143,0.234260078737754,0.043193863745028,-0.131534775841548,0.251808221686453
10.14,2,0.151941485844498,0.347687205623544,0.0587684764142786,0.043783888261564,-0.223914304025391,-0.142022970264799,-0.0524206264432712,-0.289651173436689,-0.00729392376476333,-0.0422986541337321,0.953265989155756,-0.0297962380850653,0.331400494399854,0.179581082593259,0.0615049694306263,-0.152572201707002,0.192032634459466
10.17,2,0.299742627236752,0.505376344086022,0.0251675974812057,-0.0381277911720125,-0.286558631143122,-0.0920031332336395,-0.0481887264625996,-0.321268349253822,-0.00135298725343588,0.117821792250333,1.28998687704093,0.172012492243212,0.398866746014791,0.0992055014699749,0.00707012136193935,0.00244148075807978,0.195348979155858
10.2,2,0.445621102532019,0.508499404889065,-0.00272632017985575,-0.0795617542039247,-0.0817489140497045,0.0305897193314412,0.000518814661091952,-0.231299783318583,-0.0205593025503301,0.207729321166621,1.59668772443821,0.303618477940204,0.489089632862331,0.043570258695232,-0.0242622150334178,0.0905891089612517,0.11185033722953
10.23,2,0.585355184586118,0.47326069928078,-0.0279651275165054,-0.0619932655822423,0.106336659850866,0.0471409243039237,-0.0749229407635731,-0.115573595385601,0.00560523290709148,0.129835912147384,0.816166671753085,0.598101748710593,0.561621957050284,-0.0234992522965178,-0.032431002736493,0.0488703065075635,0.0250760419527777
10.26,2,0.694804732403536,0.37224443291523,-0.0298369294310333,-0.0141504155603707,0.189692882066307,0.0274463128554135,-0.08717103589994,-0.0956755272072512,0.00991851557969909,0.251146987314473,0.257922096418144,0.255033010854417,0.593269651376893,-0.101341797133295,-0.032766706340729,0.011017181920835,0.00641905982645141
10.29,2,0.764061403241066,0.239956867173274,-0.0246487828201137,0.0378429517502365,0.177332885728528,-0.00642923266294341,-0.0828170618813644,-0.0640583513901181,0.0120344655700349,0.097425255083875,-0.398398795536159,0.108656066571042,0.587471134576454,-0.176335947752312,-0.0250760419527777,-0.0129703665272988,0.00261441897844376
10.32,2,0.795159764397107,0.111311176895454,-0.0504979603462834,0.0661641285439619,0.0853806166773481,-0.0100507624540951,-0.0510371206803593,-0.0722780032756534,0.0120751569160029,0.0590329701630706,-0.931679230119734,-0.0292875962604653,0.545996480198574,-0.248970000305185,-0.0716371145766574,-0.0253303628650777,0.00181076489557583
10.35,2,0.736177658416496,-0.187810907315287,-0.0990325632496109,0.0671915850296538,-0.0161849828587705,-0.0194097720267342,-0.194962411369162,0.0402335683258563,0.0043438011820836,-0.00115970336008789,-1.98944059572131,-0.0626239814447462,0.445997497482223,-0.289936012858465,-0.10457675913775,-0.0237332275358338,0.00167851802117985
10.38,2,0.60923083183284,-0.412844223354798,-0.043794061098056,0.0484023560289315,-0.0619830927457503,-0.00688701030508337,-0.0627155369731742,-0.194107893103834,0.00959298481195512,-0.00936918240913114,-2.69049144973093,-0.21902116967274,0.241737113559374,-0.367249570197658,-0.0441602832117679,-0.00130212307097588,0.00167851802117985
10.41,2,0.459018728191982,-0.507797479171117,-0.00673441775770338,0.0347911008026368,-0.0360118411816767,-0.000122074037903989,-0.0481887264625996,-0.269224117760755,0.00820947904904324,-0.0914436272265796,-3.02851446068707,-0.24136071860917,0.0682495600248217,-0.390555538600828,-0.000885036774803919,-0.00189214758751183,0.00167851802117985
10.44,2,0.310708944975127,-0.499811802524898,0.02203436384167,0.0306914476963612,-0.00385550503046765,-0.00274666585283975,0.101514735353659,-0.43158258817306,-0.00123091321553189,-0.12584816024252,-2.73881242306792,-0.289386679687897,-0.109246091087578,-0.419853307697785,0.0244249804172898,-0.00855535548977121,0.00167851802117985
10.47,2,0.17576626890876,-0.451653594571774,0.0375886308379365,0.0301217688528092,0.000152592547379986,-0.0054526403597115,0.0915046642455316,-0.377544480727561,-0.0251574246447137,-0.0814233832819605,-2.30944751325012,-0.204972482477289,-0.259458194728436,-0.43514308094526,0.0419527776930041,-0.010528885769219,0.00167851802117985
10.5,2,0.0714234850103254,-0.353811253191727,0.0412915433210242,0.0297046825566373,0.000152592547379986,-0.00803654082867926,0.109693695893226,-0.307596057008576,-0.0319121880754011,-0.0505081331827754,-1.69085767184464,0.0677816095461898,-0.378632974232205,-0.449954730877611,0.0454115421002838,-0.010345774712363,0.00167851802117985
10.53,2,0.00447604805647959,-0.227881710257271,0.0372529272337006,0.0292672505874813,0.000152592547379986,-0.00930814539017914,0.0889818007955158,-0.224219489120151,-0.0126244900865708,-0.0160629088208665,-1.16802474033835,0.334096296070233,-0.462914924568417,-0.467289244259977,0.0378632974232205,-0.0100711081270791,0.00167851802117985
10.56,2,-0.0279346090070294,-0.11261329996643,0.0267240414644815,0.0289315469832453,0.000152592547379986,-0.00971505884985911,0.0771406191188289,-0.175227108574684,-0.010671305480107,-0.0116173792738629,-0.752993357137771,0.45855077771335,-0.518794315418968,-0.490666422518591,0.0247403383485417,-0.0100711081270791,0.00167851802117985
10.59,2,-0.0425834935555081,-0.0483108005005036,0.0182500686666463,0.0287179174169134,0.000152592547379986,-0.00991851557969909,0.0766523229672129,-0.160700298064109,-0.00603249203975545,0.0166732790103865,-0.455641346476638,0.425631478825241,-0.554002502517777,-0.511225725068921,0.0157882422355825,-0.0100711081270791,0.00167851802117985
10.62,2,-0.0508438367870113,-0.0262866094953256,0.0135705638803268,0.0284432508316294,0.000152592547379986,-0.00996937976215908,0.0744956816309092,-0.14930672119307,-0.00371308531957966,0.0713217566454054,-0.217332478815068,0.268512019206315,-0.544765566983042,-0.493728446302683,0.0131839960936308,-0.0100100711081271,0.00167851802117985
10.65,2,-0.0575375631987467,-0.0198878953418582,0.0129195023448388,0.0281991027558214,0.000152592547379986,-0.00988799707022309,0.0749839777825251,-0.142307809686575,0.00409965310627562,0.138492996002075,-0.00608335622221544,0.0463474430575477,-0.425468713441369,-0.36771752067629,0.0131534775841548,-0.00961333048493912,0.00167851802117985
