time,Mode,Knee_Angle,Knee_Velocity,Knee_Current,Ankle_Angle,Ankle_Velocity,Ankle_Current,Acc_X,Acc_Y,Acc_Z,Gyro_X,Gyro_Z,Gyro_Y,Shank_Angle,Thigh_Angle,Knee_Ref_Torque,Ankle_Ref_Torque,Filtered_Vertical_Load
0,2,-0.0485040843938515,0.00903347880489517,0.0267647328104495,-0.0445570238349559,-0.0279040904975534,0.0335398419141209,-0.0227362895596179,-0.165461185542365,0.00534073915829951,0.144708599098687,0.0494348989328695,0.0747296568702251,-0.275129449344361,-0.226386303292947,0.0261950539668976,0.0344147058524328,0.406862595497503
0.03,2,-0.0465508997873877,0.00831120741396323,0.0234890794600258,-0.0473138625242876,-0.0043285419273456,0.0250862147892697,-0.0344350515254168,-0.162531408632669,0.000172938220363984,0.126555172378714,0.0588854640339366,0.00634276355276142,-0.267169204789371,-0.220409761853898,0.0235806349884538,0.0182246365754163,0.542242703533026
0.06,2,-0.0468764305551317,0.000671407208471938,0.0273089795627715,-0.0548977121290729,-0.0278837448245694,0.0259509058910896,-0.0357982116153447,-0.156977039908038,0.00841293577888323,0.120609149449141,0.0467543565172277,-0.0054272082684815,-0.256736960966826,-0.209641814427117,0.0280922879726554,0.033071891435489,0.652628152307708
0.09,2,-0.0451317890967538,0.00704468927070935,0.0267342143009735,-0.0678935107476017,-0.0416882839442122,0.0412762840662862,-0.0193792535172582,-0.157933286538285,0.00782291126234728,0.128030233670054,0.0419782097842341,0.0713421023183894,-0.246686198512731,-0.201305174921923,0.0246691284930977,0.0473545538702556,0.745831680247403
0.12,2,-0.0463169245480717,-0.00343333231604968,0.0255643381043936,-0.0733563239438053,-0.0100609352905871,0.0382600380464085,-0.0242011780144658,-0.166437777845597,-0.00513728242845953,0.117465742973113,0.0477462080751976,0.0246894741660817,-0.243608915473902,-0.197052929268268,0.0289061148920153,0.032990508743553,0.834671061332031
0.15,2,-0.0451877396974598,0.00488804793440555,0.0284076459039074,-0.075558743044323,-0.00250251777703177,0.0314747561062451,-0.032502212591937,-0.162999359111301,-0.00611387473169144,0.0777408164718568,0.086855677968688,-0.00630207220679342,-0.237795139418724,-0.19235816522721,0.0260170293282876,0.0300861639250872,0.912869655446028
0.18,2,-0.0443688263598539,0.0043234555090996,0.0261848811304056,-0.075980915758741,0.000152592547379986,0.0282296212652974,-0.0273547573269855,-0.160659606718141,-0.00173955504013184,0.0498163803013194,0.0938495030569374,-0.0181025625375123,-0.226447340311899,-0.181839452294483,0.0258033997619556,0.0274666585283975,0.966256701356039
0.21,2,-0.0411999877925962,0.010737428917305,0.021886857712536,-0.076230150252795,0.000152592547379986,0.0275327819655955,-0.0250963876257617,-0.159947508163701,-0.000722271390931934,0.0399843338318023,0.103630685343994,-0.00696839299701936,-0.216254158146916,-0.17482528153325,0.0198777225053662,0.0274666585283975,0.991012298959319
0.24,2,-0.0385855688141524,0.00851975056204922,0.0196335744295582,-0.0753501998962371,0.00615965249590543,0.0275683868933175,-0.0233873510951059,-0.159174372590309,-0.0043438011820836,0.0101880957467371,0.0959095024465672,-0.0143538722902107,-0.205735445214189,-0.166946419670197,0.0194352041179642,0.0250506098615477,1.00378429517502
0.27,2,-0.0361898658202867,0.00754315825881731,0.0182602415031383,-0.0736564226203192,0.00197861669769382,0.0231228573463139,-0.0244860174362417,-0.160761335083061,-0.00167851802117985,-0.010361033967101,0.107928708761864,-0.0180720440280363,-0.195216732281462,-0.158813236894843,0.0185399945066683,0.0245368816187017,1.01367737866349
0.3,2,-0.0312204351939451,0.0158391064180425,0.0150456251716666,-0.0702230903042695,0.0139774773400067,0.0233517461673838,-0.0237128818628498,-0.160557878353221,-0.0021464684998118,-0.0300505589973652,0.143533636483861,-0.0131992553483688,-0.185954364655497,-0.15449486780399,0.0119429100416069,0.0190944140954822,1.02550838750369
0.33,2,-0.0248980173141677,0.0176498713136184,0.00848923205257322,-0.0634784997100742,0.0226193019399599,0.0169937233598844,-0.0285348063600574,-0.161351359599597,0.00127160456149988,-0.0350708538061668,0.24054689168981,0.000732444227423933,-0.174637084058148,-0.14951017792291,0.00675984984893338,0.0115868607643869,1.02321441287474
0.36,2,-0.0178991058076724,0.0123345642465489,0.00639362773522141,-0.0565202795495468,0.0177719453515224,0.0124413790297149,-0.0176295256406344,-0.158767459130629,-0.000844345428835922,-0.0492721335489975,0.273466190577919,-0.00228380179245379,-0.157933286538285,-0.139851069673757,0.00582903530991546,0.010350861130609,1.00745668914864
0.39,2,0.00404370250556963,0.0572883287046927,-0.0114597003082369,-0.0491958372753075,0.0207271543524481,0.010956144901883,-0.0157170323801386,-0.158096051922157,0.00300098676513972,-0.0550757367676829,0.213421023183894,-0.022019104586932,-0.144479710277617,-0.148370820235806,-0.0257220170700196,0.00851975056204922,0.996953235470646
0.42,2,0.0200913520716982,0.0390331736198004,-0.0373088778344066,-0.0346741131829788,0.0466170232245857,-0.00236009806614378,0.00420138147119561,-0.155186620685446,0.00424207281716361,-0.043631295714184,0.181630909146397,-0.00692261523280536,-0.131178726564328,-0.151193782362336,-0.0337687307351909,-0.010834070863979,0.994476149784845
0.45,2,0.0346232490005188,0.0369070507929726,-0.032878607542141,-0.0240129805393638,0.0238603879919838,-0.00520849228390352,-0.0272123376160975,-0.162511062959685,0.00100711081270791,-0.0458235419782098,0.155329040396334,-0.0114749595629749,-0.122501297036653,-0.157027904090498,-0.0368460137740206,-0.00480157882422356,0.990747805210527
0.48,2,0.0508031454410433,0.043987344991404,-0.0499333679209774,-0.0165664642272205,0.021301919614246,-0.00154627114678386,-0.00283822138126774,-0.160334075950397,0.00397757906837163,-0.0570136621194088,0.157053336181728,-0.00731935585599333,-0.112445448164312,-0.163192643004649,-0.0518967253639332,-0.00449130731121759,0.988474176254565
0.51,2,0.0629342529577522,0.032319101535081,-0.053854996388643,-0.00785851619006928,0.0255948566138696,-0.00394197414064964,-0.00666320790225939,-0.160374767296365,-0.0010681478316599,-0.0879543443098239,0.117114780114139,-0.0202642902920621,-0.104419080172124,-0.167282123274433,-0.054389070304473,-0.00936409599088514,0.974145736055584
0.54,2,0.0712861517176834,0.0203253273110141,-0.0532904039633371,-0.00231940672017579,0.010391552476577,-0.00384533219397565,-0.0086977752006592,-0.160985137485885,0.0101219723095391,-0.103198339793085,0.0681681773328857,-0.043142999562568,-0.0989206620481989,-0.170155949583422,-0.0532954903815831,-0.00459303567613758,0.941953794976653
0.57,2,0.0769524216437269,0.0129907122002828,-0.0532039348531551,0.000442518387401959,0.00390128279468164,-0.00209560431735181,-0.00473036896877956,-0.162307606229845,0.00798567664621926,-0.108127079073458,0.0374106061993266,-0.0529190954313791,-0.0959451073742892,-0.172811059907834,-0.0532802311268451,-0.0032400484227017,0.905423139133885
0.6,2,0.0800195318460646,0.00424207281716361,-0.0507166763308613,0.00141402427238787,0.000152592547379986,0.000147506129133986,-0.00131229590746788,-0.157404299040702,0.00393688772240364,-0.104307178970712,0.00482701091545356,-0.0561998352000488,-0.0881476282031719,-0.168106123030285,-0.0502741579434594,-0.000137333292641987,0.8463443912066
0.63,2,0.0830256050294504,0.00521357870214952,-0.0533667002370271,0.00229906104719179,0.000152592547379986,0.000152592547379986,-0.0053814305042675,-0.159866125471765,0.0152287362285226,-0.103874833419802,-0.0134688355154068,-0.0671305480107018,-0.0814182968637145,-0.164352346364737,-0.0530309966327911,-0.000564592425305948,0.785103915524766
0.66,2,0.0838801232947783,0.000376394950203965,-0.0512863551744133,0.00299590034689372,0.000152592547379986,0.000152592547379986,-0.00688701030508337,-0.160883409120965,0.011118910285755,-0.11324910224718,-0.021368043051444,-0.0800805688650166,-0.075919878739789,-0.159733878597369,-0.0509557379884233,-0.000808740501113926,0.727998697876929
0.69,2,0.0836156295459863,-0.00311288796655171,-0.0501876888332774,0.00340790022481969,0.000152592547379986,0.000152592547379986,-0.00493382569861955,-0.159886471144749,0.010671305480107,-0.1108076214891,-0.0297911516668193,-0.100756859035005,-0.0712759788811914,-0.154794966480504,-0.0496180099897254,-0.00122074037903989,0.673701183100884
0.72,2,0.0841547898800623,-0.000162765383871985,-0.0491398866746015,0.00365713471887366,0.000152592547379986,0.000142419710887987,-0.0131127862381868,-0.161798964405245,0.0163070568966745,-0.097384563737907,-0.0377513962218085,-0.146946623126926,-0.0695465966775516,-0.15363017670217,-0.0505488245287433,-0.00122074037903989,0.609505498418124
0.75,2,0.0826746421704764,-0.00512710959196753,-0.0478682821131016,0.00354014709921567,0.000152592547379986,0.000152592547379986,-0.0134790083518988,-0.163487655262917,0.0189926857305623,-0.0721966205837174,-0.0620492161829483,-0.274773400067141,-0.0690226955982137,-0.15164647358623,-0.0478428500218716,-0.00122074037903989,0.513804539119643
0.78,2,0.0780510879848628,-0.0154169337036246,-0.0415407778150782,0.0032095299132257,0.000152592547379986,0.000152592547379986,-0.0182398958301543,-0.162917976419365,0.0167343160293385,-0.0567644276253548,-0.0994191310363069,-0.492431409649953,-0.076459039073865,-0.154403312275562,-0.0401623584704123,-0.00114444410534989,0.381725516525773
0.81,2,0.0696534114607176,-0.0269071525213375,-0.0333262123477889,0.00250760419527777,0.000152592547379986,0.000152592547379986,-0.0426140120649841,-0.166559851883501,0.00230923388368379,-0.0263171280048016,-0.186905524867499,-0.963067517115797,-0.0928678243354595,-0.162450025940733,-0.0300098676513972,-0.00076296273689993,0.223782057150995
0.84,1,0.0582344024984486,-0.0365052237515386,-0.021749524419894,0.00160730816573585,0.000152592547379986,0.000152592547379986,-0.0518306019267352,-0.178828292692852,-0.0190944140954822,0.00518306019267352,-0.241187780388806,-1.47001047802159,-0.107359029918312,-0.165512049724825,-0.0177007354960784,-0.000350962858973968,0.0840530615151423
0.87,1,0.0473087761060417,-0.0344350515254168,-0.0134027120782088,0.000803654082867926,0.000152592547379986,0.000152592547379986,-0.0410677409182002,-0.181249427777947,-0.0386669515060884,0.0726391389711193,-0.230475783562731,-1.77671132541887,-0.121865494755903,-0.169108147424746,-0.010574663533433,1.52592547379986e-05,0.0192520930611082
0.9,1,0.0416984567807042,-0.0158797977640105,-0.0127567369609668,2.03456729839981e-05,0.000152592547379986,0.000152592547379986,-0.0228380179245379,-0.175023651844844,-0.0442009745577359,0.139113539028087,-0.15179906613361,-1.75798821985534,-0.132999664296396,-0.17459639271218,-0.0156763410341706,0.000152592547379986,0.0054221218502355
0.93,1,0.0382905565558845,-0.00772118289742729,-0.0192673523158462,-0.000640888698995941,0.000152592547379986,0.000152592547379986,-0.0299996948149052,-0.159845779798781,-0.0469272947375917,0.214555294452752,-0.121636605934833,-1.45061596524959,-0.141595711132135,-0.179845576342051,-0.0195420189011302,0.000305185094759972,0.00239061657561978
0.96,1,0.032837916196173,-0.0152999460839666,-0.0151778720460626,-0.00129195023448388,0.000152592547379986,0.000152592547379986,-0.0356151005584887,-0.147231462548702,-0.0400504572690003,0.225857315795363,-0.186183253476567,-1.05681529180781,-0.157760348317921,-0.19052705465865,-0.0123091321553189,0.000610370189519944,0.00177007354960784
0.99,1,0.0269376710308135,-0.0182704143396303,-0.0101830093284911,-0.00172938220363984,0.000152592547379986,0.000152592547379986,-0.0369986063214006,-0.138564205857519,-0.0282906582842494,0.244880520035401,-0.245134840947701,-0.8255561998352,-0.177322712892036,-0.204199346903897,-0.00769066438795129,0.0010376293221839,0.00167851802117985
1.02,1,0.021251055431786,-0.0182093773206783,-0.00475071464176356,-0.00203456729839981,0.000152592547379986,0.000152592547379986,-0.032278410189113,-0.138157292397839,-0.0194199448632262,0.272428561255735,-0.302112898139388,-0.821395509709972,-0.199641916155482,-0.22080141605884,-0.00264493748791976,0.0010681478316599,0.00167851802117985
1.05,1,0.0196742657755262,-0.00356049277219967,-0.00512710959196753,-0.00224819686473179,0.000152592547379986,0.000152592547379986,-0.0229194006164739,-0.147109388510798,-0.0144556006551307,0.30288603371278,-0.305551316873684,-0.939115573595386,-0.211015147353537,-0.230587684764143,-0.00887071342102318,0.00143436994537187,0.00167851802117985
1.08,1,0.0185145624154383,5.08641824599953e-05,-0.00996937976215908,-0.00250251777703177,0.000152592547379986,0.000152592547379986,-0.021454512161626,-0.14930672119307,-0.00835189875993123,0.312611265399131,-0.350901821955016,-1.02556433810439,-0.217505417035432,-0.235897905412966,-0.010803552354503,0.00152592547379986,0.00167851802117985
1.11,1,0.0166224148279265,0.000152592547379986,-0.010478021586759,-0.00273649301634775,0.000152592547379986,0.000152592547379986,-0.0162053285317545,-0.149998474074526,-0.0054628131962035,0.284035767693106,-0.431979328796248,-1.02230903042695,-0.225216427096367,-0.24176763206885,-0.00986765139723909,0.00177007354960784,0.00167851802117985
1.14,1,0.010986663411359,-0.00747703482161931,-0.00456760358490758,-0.00297046825566373,0.000152592547379986,0.000152592547379986,0.0245267087822097,-0.157363607694734,-0.00591041800185146,0.252306690674561,-0.379284035767693,-0.949563076672669,-0.214870652384004,-0.225786105939919,-0.00310271513005971,0.00198370311593982,0.00167851802117985
1.17,1,0.00744651631214331,-0.000915555284279916,-0.00288908556372773,-0.00305185094759972,0.000152592547379986,0.000152592547379986,0.033071891435489,-0.159072644225389,-0.0134383170059308,0.221045564134648,-0.27973265785699,-0.817662078717409,-0.177404095583972,-0.184779402040671,-0.00341807306131169,0.00198370311593982,0.00167851802117985
1.2,1,0.00241096224860378,-0.00695822016052736,6.10370189519944e-05,-0.00297046825566373,0.000152592547379986,0.000152592547379986,0.0436109500412,-0.158055360576189,-0.0155135756502986,0.205114902188177,-0.236793115024262,-0.67212947986287,-0.138564205857519,-0.140914131087171,0.00153609831029186,0.0022278511917478,0.00167851802117985
1.23,1,-0.00032553076774397,-0.00145471561835587,0.00135298725343588,-0.00331634469639169,-0.000478123315123956,0.000152592547379986,0.127801344848984,-0.196305225786106,0.032868434705649,0.104749697358114,-0.0549740084027629,-0.702169866023743,-0.11342712688579,-0.112877793715222,0.00116987619657989,0.00259407330545976,0.00167851802117985
1.26,1,0,0.00685649179560737,-0.00125125888851588,-0.00736513362020732,-0.0134383170059308,0.0054831588691875,0.104607277647226,-0.208919543036185,0.075553656626077,0.0237230546993418,0.150537634408602,-0.606199326558224,-0.10737428917305,-0.107282733644622,-0.00246182643106377,0.0146081932025107,0.00661234371979939
1.29,1,8.13826919359925e-05,0.00210577715384381,-0.0022075055187638,-0.00964384899441511,-0.00133264158045188,0.010508540096235,0.0223700674459059,-0.172338023010956,-0.00298064109215573,0.0178228095339824,0.114057842748294,0.139734082054099,-0.0952177495651112,-0.0951770582191433,-0.0011088391776279,0.0103050833663951,0.0895413068025758
1.32,1,-0.000885036774803919,0.000183111056855983,0.000152592547379986,-0.010752688172043,0.000152592547379986,0.00962350332143111,-0.0297148553931293,-0.160618915372173,0.00210577715384381,0.0741904965361492,0.10386466058331,0.135451317890968,-0.0946277250485753,-0.0935188858709474,0.000427259132663961,0.00922676269824315,0.197536139001638
1.35,1,-0.00184128340505183,0.000152592547379986,0.000152592547379986,-0.0118615273496709,0.000152592547379986,0.00967436750389111,-0.0163680939156265,-0.159154026917325,-0.0194199448632262,0.0661539557074699,0.0919726147241635,0.0417289752901802,-0.0931221452477594,-0.0910367137668996,0.0010376293221839,0.010559404278695,0.287881099887081
1.38,1,-0.00257372763247576,0.000152592547379986,0.000152592547379986,-0.0132145146031068,-0.000478123315123956,0.010895107882931,-0.0194606362091942,-0.156916002889086,-0.00298064109215573,0.0640380057171341,0.101148513239947,0.0589922788171026,-0.0892666402172918,-0.086479283018484,0.00149540696432386,0.0117191076387829,0.357982116153447
1.41,1,-0.00314340647602771,0.000152592547379986,0.000152592547379986,-0.0157882422355825,-0.00360118411816767,0.0150252794986826,-0.0144962920010987,-0.161595507675405,-0.0151066621906186,0.0768252611875769,0.116926582639037,0.0599078341013825,-0.0830713827936644,-0.0797346924242887,0.00186162907803583,0.0197251299579862,0.444705547247739
1.44,1,-0.00354014709921567,0.000152592547379986,0.000152592547379986,-0.0160323903113905,-0.00285856705425174,0.00799584948271126,-0.0165308592994985,-0.159764397106845,-0.0142928352712587,0.065014598020366,0.116082237210201,0.0199896237067782,-0.0773745943581449,-0.0736106448561052,0.00198370311593982,0.0140792057049267,0.540472629983418
1.47,1,-0.00410982594276762,0.000152592547379986,0.000152592547379986,-0.0155237484867906,0.00731426943774733,0.00810775068412325,-0.010874762209947,-0.163508000935901,-0.011240984323659,0.0563778598386588,0.122796309294921,0.00447604805647959,-0.0692566708375296,-0.064912869655446,0.00255338195949177,0.00997955259865108,0.642953784803817
1.5,1,-0.00461846776736758,0.000152592547379986,0.000152592547379986,-0.0146183660390027,0.000396740623187963,0.00619525742362743,-0.00843328145186722,-0.164891506698813,-0.0126244900865708,0.0507014170761233,0.11210465814183,-0.00487278867966755,-0.0607623523667104,-0.0559200821965189,0.00277718436231574,0.0128889838353628,0.730887783440657
1.53,1,-0.00518814661091952,0.000152592547379986,0.00245165359457177,-0.0120548112430189,0.00790429395428327,0.00745668914863531,-0.0134383170059308,-0.163304544206061,-0.0138045391196427,0.0395011240984324,0.118798384553565,-0.0121768852809229,-0.054150008646911,-0.0487278867966755,0.00308236945707572,0.00608335622221544,0.785841446170436
1.56,1,-0.00581886247342346,0.000152592547379986,0.00377412233853165,-0.00811792352061525,0.00809757784763126,0.00146488845484787,-0.0136010823898027,-0.159194718263293,-0.0130720948922188,0.0336822616250089,0.123030284534237,-0.0172226121809544,-0.0502029480880154,-0.0441501103752759,0.00350962858973968,0.00209560431735181,0.816665140741193
1.59,1,-0.00639871415346741,0.000152592547379986,0.00414034445224362,-0.00493382569861955,0.00937935524562314,0.00348928291675568,-0.0065207881913714,-0.157567064424573,-0.0126244900865708,0.0318511510564491,0.143355611845251,-0.0182398958301543,-0.043132826726076,-0.0365306558427686,0.00387585070345164,0.000854518265327921,0.852097130242826
1.62,1,-0.00705994852544735,0.000152592547379986,0.00413017161575162,0.0043539740185756,0.0296436455376853,-0.00725323241879533,-0.0100202439446191,-0.160130619220557,-0.0153508102664266,0.0307931760612812,0.184850611896115,-0.0196844386120182,-0.0349640390230008,-0.0276701152582375,0.00421155430768761,-0.02198349965921,0.912238939583524
1.65,1,-0.0075584175135553,0.000152592547379986,0.00424207281716361,0.0133772799869788,0.021261228268278,-0.021383302306182,-0.0116478977833389,-0.162775556708477,-0.0159204891099785,0.0170700196335744,0.199875891394798,-0.0302438428907132,-0.0285449791965494,-0.0207831049531541,0.00442518387401959,-0.0278633991515854,0.969023712881863
1.68,1,-0.00778221991637928,0.000152592547379986,0.00449639372946359,0.0181279946287423,0.0087588122196112,-0.0233568325856299,-0.0032247891679637,-0.164077679779453,-0.0151880448825546,0.0054628131962035,0.185176142663859,-0.0208136234626301,-0.0193894263537502,-0.011383404034547,0.00454725791192358,-0.021383302306182,1.00609352905871
1.71,1,-0.00793481246375927,0.000152592547379986,0.00472019613228757,0.0289824111657053,0.0375682851649525,-0.0350047303689688,0.000925728120771915,-0.157648447116509,-0.0162867112236905,-0.000610370189519944,0.194158757286294,-0.00780256558936328,-0.00382498652099165,0.00424207281716361,0.00503555406353954,-0.0509353923154393,1.01060009562466
1.74,1,-0.00808740501113926,0.000152592547379986,0.00503555406353954,0.0366934212266406,0.0126244900865708,-0.0482294178085676,-0.000946073793755913,-0.160700298064109,-0.0163274025696585,-0.0118208360037029,0.168930122786136,-0.0130110578732668,0.00301115960163172,0.011291848506119,0.00503555406353954,-0.0449639372946359,1.00821965188554
1.77,1,-0.00832138025045523,0.000152592547379986,0.00482192449720756,0.0425631478825241,0.0199997965432702,-0.0466628009887997,0.00727357809177933,-0.157811212500381,-0.0147811314228746,-0.0252591530096337,0.166559851883501,-0.00286873989074374,0.0165410321359905,0.0250862147892697,0.00503555406353954,-0.0494603310240994,1.00301115960163
1.8,1,-0.0087079480371512,0.000152592547379986,0.00506607257301553,0.0515152439954833,0.0268664611753695,-0.0639769686981821,0.00519831944741152,-0.160618915372173,-0.0140893785414187,-0.0360830510371207,0.197144484796696,0.00442518387401959,0.0274870042013815,0.0363933225501267,0.00537125766777551,-0.0642567217017121,0.999496444593646
1.83,1,-0.00896226894945118,0.000152592547379986,0.00521357870214952,0.0607521795302184,0.0262611774040956,-0.0740022990610472,0.00302133243812372,-0.161921038443149,-0.0151270078636026,-0.043265073600472,0.207668284147669,0.00297046825566373,0.0375275938189845,0.0467492700989817,0.00549333170567949,-0.0749076815088351,0.998936938586586
1.86,1,-0.00916063926104516,0.000152592547379986,0.0054780724509415,0.0695516830957976,0.0289620654927213,-0.0807723217464726,0.0119937742240669,-0.157200842310862,-0.0132958972950428,-0.0537176630960011,0.221574551632232,0.00878424431084119,0.0521408734397412,0.0615558336130863,0.00549333170567949,-0.0815200252286345,0.997136346527502
1.89,1,-0.00930814539017914,0.000152592547379986,0.0054831588691875,0.0804518773969746,0.0299437442141992,-0.0947040213222653,0.00241096224860378,-0.163772494684693,-0.0137231564277067,-0.0663116346730959,0.226020081179235,0.00275683868933175,0.0601367229224525,0.0696127201147496,0.00549333170567949,-0.0955331074963632,0.9989827163508
1.92,1,-0.00930814539017914,0.000152592547379986,0.0054424675232195,0.0885341959898679,0.0236264127526678,-0.0972319711905271,0.0145980203660187,-0.162450025940733,-0.011240984323659,-0.0671305480107018,0.227301858577227,-0.0054272082684815,0.0719168675801874,0.0814030376089765,0.00549333170567949,-0.0970997243161311,1.00231432030193
1.95,1,-0.00938444166386914,0.000152592547379986,0.00551876379690949,0.0988240201015249,0.032685323648793,-0.110181992044842,0.0152083905555386,-0.161758273059277,-0.011078218939787,-0.0719473860896634,0.260729799289936,0.00385550503046765,0.0878017517624439,0.097404909410891,0.00569170201727348,-0.112669250567136,0.998463901689708
1.98,1,-0.00956755272072512,0.000152592547379986,0.00570696127201147,0.10813725190995,0.0246284371471297,-0.117811619413841,0.0184026612140263,-0.163853877376629,-0.0121768852809229,-0.0919064912869655,0.283761101107822,-0.010610268461155,0.102318389436527,0.112094485305338,0.00595110934781945,-0.116819767855871,0.993850520340587
2.01,1,-0.00961333048493912,0.000152592547379986,0.00591041800185146,0.119841100293995,0.0398826054668823,-0.133610034485916,0.0180771304462823,-0.159031952879421,-0.0128889838353628,-0.109627572456028,0.334503209529913,-0.00426750490839361,0.122430087181209,0.132312997833186,0.00595110934781945,-0.135827712841171,0.986220892971587
2.04,1,-0.00774661498865729,0.00620543026011943,0.00457777642139958,0.129072949410484,0.0196590065207882,-0.135924354787845,0.0156356496882026,-0.174820195115004,-0.00550350454217149,-0.126728110599078,0.361308633686331,-0.0181635995564643,0.138986378571937,0.146951709545172,0.00277209794406974,-0.13477482426425,0.97778761151972
2.07,1,-0.00642414624469741,0.00273649301634775,0.0011342712688579,0.137353638314971,0.0285297199418114,-0.142139957884457,0.0207017222612181,-0.17205318358918,-0.010366120385347,-0.142312896104821,0.435468611713004,-0.0410931730094302,0.162485630868455,0.169123406679484,0.00210069073559781,-0.143467513046663,0.965478479364401
2.1,2,-0.00454725791192358,0.00021362956633198,0.0032654805139317,0.14767906735435,0.0294198431348613,-0.154148991363262,-0.000152592547379986,-0.196101769056266,-0.0086774295276752,-0.168818221584724,0.568946399324524,-0.00011190120141199,0.19317199214657,0.197948138879564,0.00296029541917173,-0.156844793033642,0.900346893724377
2.13,2,0.00734987436546932,0.0254524369029817,-0.00303659169286172,0.151275165054272,0.00249743135878577,-0.143915117852311,0.04391613513596,-0.183202612384411,0.0148625141148106,-0.148065635141046,0.51740572323781,-0.0687378561764377,0.226259142836797,0.219010996836248,-0.00715150405387534,-0.146331166519161,0.78410697754855
2.16,2,0.0358032980335907,0.0798771121351766,-0.00375886308379365,0.146010722169663,-0.032400484227017,-0.157094027527696,0.00599180069378745,-0.207047741121657,-0.00825017039501124,-0.137119663075655,0.548432874538408,-0.102145451216163,0.257632170578122,0.221940773745944,0.0163223161514125,-0.16940824610126,0.605863622953988
2.19,2,0.0913062939339376,0.175634022034364,0.0387025564338104,0.114556311736401,-0.130863368633076,-0.165746024964141,-0.0199285866878262,-0.271889400921659,-0.00499486271757154,-0.0954924161503952,0.701411989705089,0.00710572628966135,0.294696900336721,0.203436384166997,0.054114403719189,-0.174103010142318,0.491953286334829
2.22,2,0.193294066184474,0.341140985340943,0.0487634917243975,0.0616168706320383,-0.192393770154932,-0.155685089673554,-0.0351064587338888,-0.271909746594643,0.00129195023448388,-0.0527054658650471,0.99786370433668,0.0481429486983856,0.345667897579882,0.152465386923836,0.0518458611814732,-0.15319783115126,0.460626036357718
2.25,2,0.329584643086032,0.471098971526231,0.0228380179245379,0.000411999877925962,-0.214880825220496,-0.112481053092034,-0.0572832422864467,-0.269834487950275,0.00385550503046765,-0.0121616260261849,1.29843033132928,0.0114088361257769,0.416002889085564,0.086530147200944,0.0164087852615945,-0.106143375957518,0.369375693024486
2.28,2,0.465300454725791,0.47282835372987,-0.00844345428835922,-0.065335042369864,-0.224316131066825,-0.0591550442009746,-0.0396231981363364,-0.240028077028718,-0.00269580167037975,-0.0296589047924233,1.35656300546281,-0.0140283415224667,0.497777235226498,0.032547990356151,-0.00839767652414523,-0.054790897345907,0.169291258481602
2.31,2,0.592252367727694,0.433062735882646,-0.0196895250302642,-0.140029094312367,-0.259565009511602,-0.0233161412396619,0.0165308592994985,-0.10696737571337,-0.00991851557969909,0.0591041800185146,0.837468591367331,0.0189367351298563,0.562842697429324,-0.0292062135685293,-0.0252235480819117,0.0790632852158167,0.0389161860001424
2.34,2,0.708736431979329,0.36710715048677,-0.0294452752260913,-0.206055889563687,-0.136397391684723,0.0893175043997518,-0.00102745648569191,-0.0751670888393811,0.000742617063915932,0.00532547990356151,0.347168390962452,-0.0513067008473973,0.600456760358491,-0.108945992411064,-0.032726014994761,0.157602669352295,0.00875372580136519
2.37,2,0.78537858211005,0.240328175705232,-0.0264290292062136,-0.167994221828873,0.220669169184444,0.0715659047212134,-0.0398470005391603,-0.0574866990162867,-0.0184230068870103,0.032380138554033,-0.194260485651214,-0.0518763796909492,0.605273598437452,-0.179896440524511,-0.0270343129774875,0.0811436302784305,0.00286365347249774
2.4,2,0.816415906247139,0.110863572089806,-0.0462965788750877,-0.0754417554246651,0.344731996622618,0.0289925840021973,-0.032522558264921,-0.0379751986246325,-0.00804671366517126,-0.0367290261543626,-0.723110649942523,-0.157333089185258,0.576087730541907,-0.24008911404767,-0.0691447696361176,-0.0120598976612649,0.00187688833277383
2.43,2,0.771543524480931,-0.150268054241564,-0.11375774407178,0.0231838943652659,0.330983408103682,-0.0235857214066998,-0.226925463627023,0.114698731447289,-0.0250556962797937,0.011215552232429,-1.6385286009298,-0.0852788883124282,0.508982614622435,-0.26232693461918,-0.117903174942269,-0.098096662292347,0.00167851802117985
2.46,2,0.656254768517106,-0.389350057476526,-0.053844823552151,0.0700654113386436,0.1087730541907,-0.0485651214128035,-0.132196010213528,-0.141107414980519,0.000620543026011943,0.0522578610593992,-2.52037110507523,-0.224239834793135,0.375993123162531,-0.280002238024028,-0.0563422549109368,-0.0622323272398043,0.00167851802117985
2.49,2,0.505884985910621,-0.508423108615375,-0.0151066621906186,0.0624052654601683,-0.0496129235714794,-0.0259763379823196,-0.0601519821771905,-0.266518143253884,0.00814844203009125,-0.0372376679789626,-2.89693390708131,-0.0552334157333089,0.21340067751091,-0.292250333160395,-0.00934375031790114,-0.0132552059490748,0.00167851802117985
2.52,2,0.352844833724988,-0.516108686585081,0.0182042909024323,0.0410524816634622,-0.0630156356496882,0.00371817173782566,0.104403820917386,-0.434654784793644,0.00662251655629139,-0.0906298003072197,-2.74989064200771,-0.0618661051260923,0.0374767296365246,-0.315215511541083,0.0194657226274402,0.00341298664306569,0.00167851802117985
2.55,2,0.209356975005341,-0.48050884528133,0.0358999399802647,0.032446261991231,-0.0192571794793542,-0.00227362895596179,0.0696941028066856,-0.356629128900011,-0.00416069012522762,-0.0676086713258258,-2.31329793186234,0.101250241604867,-0.111423078096866,-0.320693583992025,0.0404471978921883,-0.00523901079337952,0.00167851802117985
2.58,2,0.0987273781548509,-0.37387208675395,0.0402742596718243,0.0307219662058372,-0.000411999877925962,-0.00476088747825556,0.0923998738568275,-0.305846329131952,-0.00515762810144353,-0.0267393007192195,-1.75828831853186,0.330851161229286,-0.232907091484319,-0.331537827692496,0.0441501103752759,-0.0102389599291971,0.00159713532924385
2.61,2,0.0256609800510676,-0.248619037446211,0.0362763349304687,0.0301268552710552,0.000152592547379986,-0.0075685903500473,0.0713624479913734,-0.232194992929879,0.00340790022481969,-0.0176905626595864,-1.24052654601683,0.472263761304565,-0.320973336995554,-0.346552934354686,0.0375174209824925,-0.010528885769219,0.00150049338256986
2.64,2,-0.010615354879401,-0.125044506159652,0.0263171280048016,0.0295826085187333,0.000152592547379986,-0.00922676269824315,0.0575273903622547,-0.187637969094923,0.0010681478316599,0.010483108005005,-0.813898129215369,0.378332875555691,-0.381150751263975,-0.37031159398175,0.0239621163569038,-0.0102084414197211,0.00154118472853786
2.67,2,-0.0233720918403678,-0.043412579729606,0.0150964893541266,0.0272428561255735,-0.0075685903500473,-0.00933357748140914,0.0475580106000956,-0.171971800897244,0.00483209733369956,0.0579241309854427,-0.517553229366944,0.152144942574338,-0.420031332336395,-0.396450697347942,0.0120293791517889,-0.00742617063915932,0.00167851802117985
2.7,2,-0.0270495722322255,-0.0102796512751651,0.00852992339854122,0.0255389060131637,-0.00596636860255745,-0.00817896053956725,0.0393993957335124,-0.161025828831853,0.00886054058453118,0.0971505884985911,-0.332829777926979,-0.110873744926298,-0.40942106387524,-0.382152775658437,0.00645466475417341,-0.00767540513321329,0.00167851802117985
2.73,2,-0.0298064109215573,-0.00707520778018535,0.00638345489872941,0.0224921414838099,-0.00928271329894915,-0.00677510910367138,0.0387076428520564,-0.15073091830195,0.0065411338643554,0.10783206681519,-0.200562557858008,-0.279457991271706,-0.339716788232063,-0.309686574907682,0.00645975117241941,-0.00472019613228757,0.00167851802117985
2.76,2,-0.033041372926013,-0.00821965188553524,0.00672424492121138,0.0192978708253222,-0.00807723217464726,-0.00314340647602771,0.0479242327138076,-0.141453291421247,0.00385550503046765,0.0934375031790114,-0.064923042491938,-0.284127323221534,-0.263974934130884,-0.230699585965555,0.00683614612262337,-0.00420138147119561,0.00167851802117985
2.79,2,-0.0372936185796686,-0.0127872554704428,0.00727357809177933,0.0187892290007223,0.00011190120141199,-0.00316375214901171,0.0498774173202714,-0.139581489506719,-0.00086469110181992,0.064963733837906,0.0810469883317566,-0.186752932320119,-0.184748883531195,-0.147231462548702,0.00816878770307525,-0.00610370189519944,0.00167851802117985
2.82,2,-0.0411898149561042,-0.0120853297524949,0.00819930621255125,0.0186264636168503,0.000152592547379986,-0.00453708507543158,0.0516271451968952,-0.142877488530127,-0.010467848750267,0.0442823572496719,0.242601804661194,-0.0888902452670878,-0.10757774590289,-0.0661437828709779,0.00906399731437117,-0.00610370189519944,0.00167851802117985
2.85,2,-0.043387147638376,-0.00604266487624744,0.0087384665466272,0.0167953530482905,-0.00753807184057131,-0.00320444349497971,-0.0394400870794804,-0.168919949949644,0.032258064516129,-0.0661030915250099,0.290902432325205,-0.0187892290007223,-0.0423698639891761,0.00116987619657989,0.00829086174097924,-0.00369273964659566,0.00167851802117985
2.88,2,-0.0537532680237231,-0.032166508987701,0.010671305480107,0.0128482924893948,-0.0183314513585823,-0.00170903653065584,-0.144098228909167,-0.187841425824763,0.0246080914741457,-0.00121056754254789,0.188207647938475,-0.00492365286212755,-0.0257881405072176,0.0280058188624734,0.0133772799869788,-0.00192266609698782,0.0461236406547238
2.91,2,-0.0637226477858821,-0.0314645832697531,0.0159815261289305,-0.0138655761385947,-0.106061993265582,0.0129703665272988,-0.0896532080039878,-0.161798964405245,0.0172429578539384,0.0345266070538448,0.259142836797184,0.221635588651184,-0.0125329345581428,0.0512812687561673,0.0168258715577665,0.0292672505874813,0.199519842117578
2.94,2,-0.0617796360159103,0.00489313435265155,0.0188807845291503,-0.0563066499832148,-0.138197983743807,0.0627969196651102,-0.0380565813165685,-0.152806176946318,0.00658182521032339,0.0114342682170069,0.318297880998159,0.500605283771274,-0.00888088625751518,0.0529903052868231,0.0252082888271737,0.0774458042135889,0.334818567461165
2.97,2,-0.0580258593503627,0.0133060701315348,0.032278410189113,-0.0802840255948566,-0.0555335144098229,0.064923042491938,-0.0621051667836543,-0.210832036296681,-0.0415560370698162,-0.0148421684418266,0.397330647704499,0.314238919237851,0.00853500981678721,0.0667541530604979,0.0299081392864772,0.0631122775963622,0.493881038850063
3,2,-0.0554114403719189,0.010396638894823,0.0292062135685293,-0.097333699555447,-0.0571611682485427,0.0634174626911222,-0.0614947965941343,-0.148777733695486,-0.0132755516220588,0.0168970814132104,0.360830510371207,-0.0223497217729219,0.02193263547675,0.0775678782514929,0.0285042878505814,0.0643940549943541,0.635100355031993
3.03,2,-0.0559200821965189,-0.00179041922259184,0.0301217688528092,-0.115919471826329,-0.0563676870021668,0.0715760775577054,-0.0459507024343598,-0.169042023987548,-0.00139367859940387,0.00255338195949177,0.343506169825332,0.06554358551795,0.0372936185796686,0.0934069846695354,0.0337534714804529,0.0725119785149693,0.7378256579282
3.06,2,-0.0553198848434909,0.00375377666554765,0.0339976195562609,-0.130588702047792,-0.043702505569628,0.0696839299701936,-0.0494094668416395,-0.154962818282622,-0.00595110934781945,0.0428378144678081,0.334269234290597,0.0287891272723573,0.0352895697907448,0.0908230842005676,0.0317494226915291,0.0713522751548814,0.811995808791365
3.09,2,-0.0576799829096347,-0.00597145502080345,0.0377412233853165,-0.140537736136967,-0.0274259671824295,0.0665100049846899,-0.0491246274198635,-0.156753237505214,-0.010711996826075,0.0483311461734876,0.334086123233741,0.0510574663533433,0.0351166315703808,0.0930305897193315,0.0387381613615324,0.0668253629159418,0.875932086143579
3.12,2,-0.0576799829096347,-0.000264493748791976,0.0357270017599007,-0.147872351247698,-0.0200913520716982,0.0642516352834661,-0.0380972726625365,-0.167821283608509,-0.011078218939787,0.0565406252225308,0.332122765790785,-0.00610370189519944,0.0288705099642933,0.086794640949736,0.0355235450300607,0.0643533636483861,0.947457299518825
3.15,2,-0.0577613656015707,0.000152592547379986,0.0350759402244128,-0.14996795556505,0.0011088391776279,0.0566830449334188,-0.0348012736391288,-0.168187505722221,-0.0126244900865708,0.0288399914548173,0.324330373037914,-0.00800602231920326,0.0475274920906196,0.105522832931506,0.0352488784447768,0.0556759341207109,1.02175969725639
3.18,2,-0.0579648223314107,0.000152592547379986,0.0353302611367128,-0.146844894762006,0.0133264158045188,0.0472223069958597,-0.0280872015544094,-0.167984048992381,-0.0147811314228746,-0.00356049277219967,0.305317341634368,-0.00892157760348318,0.06579790643025,0.123996704000977,0.0352488784447768,0.0480463067517116,1.06761884416232
3.21,2,-0.0606402783288064,-0.00725323241879533,0.0386262601601204,-0.133701590014344,0.0509760836614073,0.0334279407127089,-0.0335398419141209,-0.158299508651997,-0.011200292977691,-0.0146692302214627,0.313333536790063,-0.0076092816960153,0.0611692658263904,0.122033346558021,0.0402132226528723,0.0235195979695018,1.07940916165654
3.24,2,-0.0603961302529984,0.000345876440727968,0.0370596433403526,-0.115746533605965,0.0597552415540025,0.0190740684224982,-0.0354930265205847,-0.156305632699566,-0.0100202439446191,-0.0161748100222785,0.314920499282815,-0.00735496078371532,0.0484227017019155,0.109022288684754,0.0367035940631326,0.0101931821649831,1.0754010640787
3.27,2,-0.0613422040467544,-0.00131229590746788,0.0394299142429884,-0.101474044007691,0.0445773695079399,0.0136010823898027,-0.032726014994761,-0.154922126936654,-0.011037527593819,-0.0187078463087863,0.315083264666687,-0.0140385143589587,0.0333160395112969,0.0948820459608753,0.0384634947762485,0.0119123915321309,1.06179998168889
3.3,2,-0.0613422040467544,0.000132246874395988,0.0376496678568885,-0.0903246152124597,0.032726014994761,0.0134891811883908,-0.0271513005971455,-0.155898719239886,-0.00896226894945118,-0.0207322407706941,0.313842178614663,-0.0203965371664581,0.0234585609505498,0.0850652587460962,0.0376903592028565,0.0148625141148106,1.05373292235074
3.33,2,-0.0613727225562304,0.000152592547379986,0.0377005320393485,-0.0750348419649851,0.0533972187465031,0.00637836848048341,-0.0242622150334178,-0.158787804803613,-0.00814844203009125,-0.021942808313242,0.331197037670014,-0.0175583157851904,0.0194708090456862,0.0811080253507085,0.0376903592028565,0.00127160456149988,1.05615405743583
3.36,2,-0.0597043773715425,0.0064800968454034,0.0363271991129287,-0.0589414146346426,0.043376974801884,-0.00269580167037975,-0.0271919919431135,-0.158299508651997,-0.00940987375509914,-0.0222988575904619,0.335154271065401,-0.0318104597104811,0.0199489323608102,0.0798669392986846,0.0340484837387209,-0.00331634469639169,1.05890072328867
3.39,2,-0.0591143528550066,0.00250251777703177,0.032624286629841,-0.0453708507543158,0.043122653889584,-0.000366222113711966,-0.00570696127201147,-0.161514124983469,-0.010508540096235,-0.0302133243812372,0.346558020772932,-0.0250455234433017,0.0300810775068412,0.0893988870916878,0.0343434959969888,-0.00340790022481969,1.06397696869818
3.42,2,-0.0576392915636667,0.00561540574358348,0.0349436933500168,-0.0223802402823979,0.0773644215216529,-0.0125125888851588,-0.0295113986632893,-0.163670766319773,-0.00782291126234728,-0.0362152979115167,0.409171829381186,-0.00368256681010366,0.0503962319813634,0.108259325947854,0.0339365825373089,-0.0308949044262012,1.06389558600625
3.45,2,-0.0475987019460636,0.032898953215125,0.0222785119174779,-7.12098554439934e-05,0.0631936602882982,-0.0292774234239733,-0.0246284371471297,-0.161392050945565,-0.00851466414380322,-0.0477716401664276,0.462904751731925,-0.0043031098361156,0.0768862982065289,0.124688456882433,0.0149540696432386,-0.0347097181107008,1.06355988240201
3.48,2,-0.0366832483901486,0.0353506068096967,0.00642923266294341,0.0180466119368063,0.0576901557461267,-0.033102409944965,0.00357066560869167,-0.159479557685069,-0.0086774295276752,-0.0575172175257627,0.470707317321289,-0.00912503433332316,0.104953154087954,0.141860204880927,0.00376394950203965,-0.0365510015157526,1.06079287087619
3.51,2,-0.0332346568193609,0.00731426943774733,0.00927762688070314,0.0423189998067161,0.076530248929309,-0.0576698100731427,-0.00778221991637928,-0.159357483647165,-0.00961333048493912,-0.0577918841110467,0.52038127791172,0.00645975117241941,0.127648752301604,0.161076693014313,0.0160323903113905,-0.0607826980396944,1.06099632760603
3.54,2,-0.0236009806614378,0.0198980681783502,0.0124515518662069,0.0667643258969899,0.0792565691091647,-0.0752382986948251,0.0115461694184189,-0.157526373078606,-0.00717184972685934,-0.0787987914670247,0.571754102196315,-0.000203456729839981,0.151046276233202,0.174860886460972,0.00732444227423933,-0.0776594337799209,1.05598111921547
3.57,2,-0.0032959990234077,0.0520849228390352,-0.00899278745892717,0.0909248125654876,0.0710877814060895,-0.0959705394655192,0.010935799228899,-0.157729829808445,-0.00920641702525915,-0.0992767113254189,0.560187587104912,-0.0186468092898343,0.184667500839259,0.188177129428999,-0.0202235989460941,-0.098350983204647,1.0455132704652
3.6,2,0.0137435021006907,0.0426852219204281,-0.0291553493860693,0.113437299722282,0.0707520778018535,-0.116773990091657,0.0188706116926583,-0.161839655751213,-0.00554419588813949,-0.132043417666148,0.561713512578712,-0.010864589373455,0.219082206691692,0.205430260119429,-0.0308745587532172,-0.121768852809229,1.04490290027568
3.63,2,0.0227769809055859,0.0185247352519303,-0.0239570299386578,0.13088371430606,0.0447401348918119,-0.134668009481084,0.0193589078442742,-0.174982960498876,0.00182093773206783,-0.146855067598498,0.50267036957915,-0.0425326293730481,0.249905901262449,0.227210303048799,-0.022217474898526,-0.13510544145024,1.04122033346558
3.66,2,0.0373444827621286,0.0390331736198004,-0.0317646819462671,0.146295561591439,0.0460066530350658,-0.151560004476048,0.00896226894945118,-0.188512833033235,-0.010549231442203,-0.174830367951496,0.602862636188849,-0.0250404370250557,0.282586138492996,0.245317952004557,-0.0391196427299824,-0.155039114556312,1.01368246508174
3.69,2,0.0568865016632588,0.0566677856786808,-0.0350352488784448,0.157801039663889,0.0259610787275816,-0.157745089063183,0.0236721905168818,-0.183609525844091,0.0166325876644185,-0.203243100273649,0.610822880743838,-0.0608386486404004,0.318989633879615,0.2621743420718,-0.0273140659810175,-0.163197729422895,0.907249163284199
3.72,2,0.0883256528417819,0.0986561682994069,-0.021332438123722,0.158396150598671,-0.0148726869513026,-0.177332885728528,0.00578834396394747,-0.230099388612527,0.00409965310627562,-0.171661529384238,0.661727754549801,-0.133793145542772,0.356883449812311,0.268690043844925,-0.00881984923856319,-0.186554562008525,0.76347137872453
3.75,2,0.142160303557441,0.176498713136184,-0.00098167872147791,0.137689341919207,-0.0963621936704611,-0.178299305195268,-0.00735496078371532,-0.254046245714693,0.0137841934466587,-0.133004750714642,0.784503718171738,-0.113462731813512,0.400138350576291,0.258033997619556,0.0136366873175247,-0.189672536393323,0.611819818720054
3.78,2,0.224855291400901,0.276680806909391,0.0126906135237688,0.0902025411745557,-0.185445722830897,-0.169657480595314,-0.021312092450738,-0.273537400433363,0.0201320434176662,-0.103885006256294,0.925855281228065,-0.155705435346538,0.451328063804031,0.226559241513311,0.0266630044455295,-0.173319701732434,0.52310251167333
3.81,2,0.334808394624673,0.374360382905566,0.011022268339081,0.021759697256386,-0.248578346100243,-0.124393444624165,-0.032237718843145,-0.254717652923165,0.000600197353027945,-0.0684275846634317,1.11027354757327,-0.150461338134912,0.513463749097161,0.178762169255654,0.010859502955209,-0.120721050650553,0.404471978921883
3.84,2,0.46094139428897,0.43048900825017,-0.00593076367483545,-0.0572578101952167,-0.273527227596871,-0.0685394858648437,-0.0294503616443373,-0.21866512039552,-0.0145980203660187,-0.0122837000640889,1.10750653604745,-0.087394838302764,0.580879136529639,0.119978433586637,-0.0054170354319895,-0.0615660064495783,0.207805617440311
3.87,2,0.587974689982808,0.435733105461796,-0.0144149093091627,-0.140196946114485,-0.278364411348816,-0.0155237484867906,0.00666320790225939,-0.168411308125045,-0.021210364085818,-0.00498468988107954,0.901384523046561,0.00209051789910581,0.641555019786167,0.0536820581682791,-0.0146743166397086,-0.0100558488723411,0.0533870459100111
3.9,2,0.704428235724967,0.402661214026307,-0.0207017222612181,-0.212988677632984,-0.220079144667908,0.0471612699769077,-0.0245674001281777,-0.0951668853826513,-0.0134790083518988,0.065243486841436,0.482818079165014,0.139952798038677,0.682800785342977,-0.021413820815658,-0.0278888312428154,0.110863572089806,0.0122735272275969
3.93,2,0.787214779096856,0.292484308399711,-0.0308999908444472,-0.214692627745394,0.0939105400758894,0.104210537024038,-0.0142724895982747,-0.0747398297067171,-0.00772118289742729,0.0387025564338104,0.0748619037446211,0.115125990579953,0.699850459303568,-0.08712017171748,-0.032502212591937,0.126361888485366,0.00380972726625365
3.96,2,0.832351654611855,0.162327951902829,-0.0235958942431918,-0.132699565619882,0.32947274188462,0.0458388012329478,-0.0607623523667104,-0.0332550024923449,-0.0146387117119867,0.0599332661926125,-0.555274107079277,0.0310576698100731,0.683751945554979,-0.148355560981068,-0.0229906104719179,0.0441755424665059,0.00205491297138381
3.99,2,0.841105380413221,0.0404878892381563,-0.0165512049724825,-0.0238400423189998,0.387788527075004,0.0171056245612964,-0.032685323648793,-0.0738242744224372,-0.0135196996978668,0.075904619485051,-1.0032400484227,0.0133569343139948,0.635848058514156,-0.205003000986765,-0.0348216193121128,-0.0287128309986674,0.00170395011240984
4.02,2,0.797560553809219,-0.139113539028087,-0.113284707174902,0.0765963723665069,0.32298755862097,-0.0471867020681377,-0.119683421328369,-0.0352692241177608,-0.0100609352905871,0.139530625324259,-1.58524328338471,-0.0142572303435367,0.558931241798151,-0.238390250353506,-0.122948901842301,-0.117704804630675,0.00154118472853786
4.05,2,0.673568936226488,-0.412818791263568,-0.0568305510625528,0.109525844091108,0.0527308979562771,-0.0484532202113915,-0.177933083081556,-0.0472731711783197,-0.00841293577888323,0.144327117730237,-2.63114820805485,-0.097979674672689,0.394334747357606,-0.278954435865352,-0.0562608722190008,-0.0627002777184362,0.00157170323801386
4.08,2,0.52038127791172,-0.517624439222388,-0.0160781680756045,0.0857468387910601,-0.101870784630879,-0.0254829554124577,-0.0425326293730481,-0.274086733603931,-0.00525935646636352,0.0923998738568275,-3.05135247861161,-0.0581275877152827,0.186829228593809,-0.333318074078595,-0.0103254290393791,-0.00784325693533128,0.00167851802117985
4.11,2,0.356476536352631,-0.546973072501806,0.021546067690054,0.0519374167099012,-0.102206488235115,0.00716167689036734,0.126519567450992,-0.426190984832301,0.00945056510106713,0.0444909003977579,-2.73630990529089,0.0849330118717002,0.010391552476577,-0.34588661356446,0.0229550055441959,0.0101575772372611,0.00167851802117985
4.14,2,0.204728334401481,-0.506978565833511,0.0417747530543942,0.0380413220618305,-0.0306863612781152,0.00103254290393791,0.127597888119144,-0.375367493718273,0.0043031098361156,0.111311176895454,-2.28428500218716,0.356440931424909,-0.140883612577695,-0.345500045777764,0.0456302580848618,-0.00377920875677765,0.00167851802117985
4.17,2,0.0882340973133539,-0.393378500727358,0.0448469496749779,0.0344859157078768,-0.00901313313191117,-0.00413017161575162,0.113742484817042,-0.285053051342306,0.0229194006164739,0.0836156295459863,-1.71856847844885,0.430229600919624,-0.259626046530554,-0.34779402040671,0.0492823063854895,-0.00946073793755913,0.00167851802117985
4.2,2,0.0125787123223568,-0.258115380311492,0.0396588030640583,0.032573422447381,-0.00250251777703177,-0.00659199804681539,0.0815759758293405,-0.217322305978576,0.0282906582842494,0.0556199835200049,-1.20856349375896,0.324142175562812,-0.345306761884416,-0.357793918678345,0.0414136173589282,-0.00984221930600909,0.00167851802117985
4.23,2,-0.0277260658589434,-0.138589637948749,0.0302641885636972,0.032258064516129,0.000152592547379986,-0.00877407147434919,0.0876389863785719,-0.185460982085635,0.0184840439059623,0.0556606748659729,-0.773450931323181,0.139886674601479,-0.403317361980041,-0.375357320881781,0.0287891272723573,-0.010986663411359,0.00167851802117985
4.26,2,-0.0487838373973815,-0.0707571642200995,0.021851252784814,0.0300098676513972,-0.0075787631865393,-0.0100558488723411,0.0935188858709474,-0.152846868292286,0.010467848750267,0.0641193884090701,-0.436724957019766,-0.0249997456790877,-0.437477746920174,-0.38845484786523,0.0204677470219021,-0.00837224443291523,0.00167851802117985
4.29,2,-0.0594500564592425,-0.0338857183548489,0.0169937233598844,0.0296029541917173,9.15555284279916e-05,-0.00933866389965514,0.0985442670979949,-0.125176753034048,0.00595110934781945,0.0735089164911852,-0.105919573554694,-0.146158228298797,-0.397269610685547,-0.337575406150497,0.0165105136265145,-0.0100711081270791,0.00167851802117985
4.32,2,-0.0581631926430046,0.00412508519750562,0.0124973296304209,0.0295164850815353,0.000152592547379986,-0.00956755272072512,0.0659098076316619,-0.108350881476282,0.00674459059419538,0.118091372417371,0.107979572944324,-0.239814447462386,-0.361211991739657,-0.30283516953032,0.0097760958688111,-0.0100711081270791,0.00167851802117985
4.35,2,-0.0587888220872626,0.000951160212001912,0.00958789839370912,0.0294249295531073,0.000152592547379986,-0.00973540452284311,0.0409253212073122,-0.103020315154475,0.011261329996643,0.109775078585162,0.246594642984303,-0.323257138788008,-0.35021006907356,-0.291202531001719,0.0098167872147791,-0.0100711081270791,0.00167851802117985
4.38,2,-0.0591906491286966,0.000152592547379986,0.00989816990671509,0.0292011271502833,0.000152592547379986,-0.00993886125268309,0.0167953530482905,-0.102043722851243,0.0126448357595548,0.108167770419426,0.378337961973937,-0.41059094007182,-0.330988494521928,-0.271548610899177,0.0102694784386731,-0.0100711081270791,0.00167851802117985
4.41,2,-0.0575273903622547,0.00620543026011943,0.0101016266365551,0.0289518926562293,0.000152592547379986,-0.00998463901689708,-0.00279753003529974,-0.119276507868689,0.0162256742047385,0.0798974578081606,0.48310291858679,-0.456811222673218,-0.30489516891995,-0.247164321827855,0.00927762688070314,-0.0100711081270791,0.00167851802117985
4.44,2,-0.054470452996409,0.00836207159642323,0.00854009623503321,0.0287738680176194,0.000152592547379986,-0.0100100711081271,-0.0122582679728589,-0.151626127913246,0.0116478977833389,0.0277311522771895,0.622445346435947,-0.437757499923704,-0.264585304320404,-0.209901221757663,0.00804162724692526,-0.0100711081270791,0.00167851802117985
4.47,2,-0.0496180099897254,0.00776696066164129,0.00786360260831528,0.0272225104525895,-0.00716676330861334,-0.0101524908190151,-0.0475580106000956,-0.169428591774244,-0.00625629444257942,0.0233771782586139,0.713202307199316,-0.361247596667379,-0.21975870031841,-0.169911801507614,0.00749738049460331,-0.00783817051708528,0.00167851802117985
4.5,2,-0.0359457177444787,0.0313933734143091,0.00415051728873562,0.0262916959135716,-0.000361135695465967,-0.00840276294239123,-0.0611896114993744,-0.167577135532701,-0.010467848750267,0.0349386069317708,0.591677602465896,-0.226813562425611,-0.181895402895189,-0.145715709911395,0.00208034506261381,-0.0086977752006592,0.00167851802117985
4.53,2,-0.021632536800236,0.0360321868546607,0.000228888821069979,0.0261543626209296,-0.00117496261482589,-0.0086825159459212,-0.0854213080233161,-0.164464247566149,-0.0140283415224667,0.0398215684479303,0.570986053041169,-0.102008117923521,-0.145669932147181,-0.123788160852891,-0.00131738232571388,-0.00900296029541917,0.00167851802117985
4.56,2,-0.0100507624540951,0.0303760897651092,-0.00242113508509578,0.0229244870347199,-0.0129957986185288,-0.0075736767682933,-0.280231126845098,-0.153762423576566,-0.00352997426272368,-0.0271309549241615,0.15357931251971,0.00991851557969909,-0.123650827560249,-0.113366089866838,-0.00285348063600574,-0.0043743196915596,0.00167851802117985
4.59,2,-0.0101423179825231,-0.00134281441694388,0.000340790022481969,0.0193639942625202,-0.0097303181045971,-0.00309254229356772,-0.0345978169092888,-0.14910326446323,-0.0307117933693452,0.0950295520900093,0.200898261462244,0.0534328236742251,-0.116270434685303,-0.105878882208726,0.00150557980081586,-0.00374360382905566,0.00167851802117985
4.62,2,-0.00805688650166326,0.00512710959196753,0.00156661681976786,0.0188807845291503,-0.00191249326049582,-0.00342824589780368,-0.0532344533626311,-0.178726564327932,-0.00123091321553189,0.109988708151494,0.37382122257149,0.177556688131352,-0.0932340464491714,-0.0849431847081922,0.0011088391776279,-0.0064699240089114,0.00167851802117985
4.65,2,-0.00319427065848771,0.00879950356557919,0.00032553076774397,0.0167851802117985,-0.00565609708955148,-0.00208543148085981,-0.0632445244707582,-0.15459659616891,-0.00802636799218726,-0.0184636982329783,0.226681315551215,0.407269508957183,-0.076306446526485,-0.0728985463016653,-0.000457777642139958,-0.00354014709921567,0.00167851802117985
4.68,2,-0.000742617063915932,0.0021973326822718,0.000457777642139958,0.0166529333374025,-0.000478123315123956,-0.0032146163314717,-0.065686005228838,-0.218034404533016,0.0614337595751824,-0.185450809249143,0.169794813887956,0.3952960804061,-0.0799076306446526,-0.0789615568508967,3.05185094759972e-05,-0.00564592425305948,0.00490330718914355
4.71,4,0.00267545599739575,0.0065716523738314,0.000417086296171962,-0.000549333170567949,-0.0844548885565762,0.00468967762281157,-0.0352081870988088,-0.345113477991068,-0.00554419588813949,-0.0513524786116113,0.344248786889248,0.106896165857926,-0.0669576097903379,-0.0695211645863216,-0.000579851680043947,0.0158696249275185,0.257637256996368
4.74,4,0.0232245857112339,0.0626341542812382,-0.0157373780531226,-0.0510879848628193,-0.17108676412244,0.0637836848048341,-0.010427157404299,-0.153864151941486,0.021312092450738,0.0680155847855057,0.41514328440199,0.195755892615538,-0.0457777642139958,-0.0689107943968017,-0.032807397686697,0.0930305897193315,0.551032034262113
4.77,4,0.043936480808944,0.0625425987528102,-0.0591550442009746,-0.0689006215603097,-0.0114953052359589,0.0535396384573911,0.0499994913581754,-0.230567339091159,-0.0177515996785384,0.0131941689301228,0.457665740938546,0.043488876003296,-0.0166224148279265,-0.0604775129449344,-0.0589414146346426,0.043905962299468,0.784142582476272
4.8,4,0.0556250699382509,0.0344553971984008,-0.0526546016825872,-0.0569780571916868,0.0380158899706005,0.00254320912299977,-0.0252794986826177,-0.169530320139164,-0.0033061718598997,-0.00358083844518367,0.288369396038697,-0.00821965188553524,0.00510676391898353,-0.0502945036164434,-0.0530309966327911,-0.00239061657561978,0.859970905687633
4.83,4,0.0566932177699108,0.00136316008992787,-0.0380972726625365,-0.0552791934975229,0.000559506007059949,0.00809757784763126,-0.00810775068412325,-0.159072644225389,-0.00395723339538764,-0.00390636921292764,0.133772799869788,-0.0229702647989339,0.0146692302214627,-0.0417900123091322,-0.032186854660685,0.0181585131382183,0.806899217708874
4.86,4,0.0577715384380627,0.00406913459679963,0.0011190120141199,-0.0519730216376232,0.00796533097323527,0.00992868841619108,-0.0233670054221218,-0.153335164443902,-0.00770083722444329,-0.0311899166844691,0.141707612333547,-0.00508641824599953,0.0129805393637908,-0.0445468509984639,-0.000315357931251971,0.00658182521032339,0.676920885850602
4.89,4,0.0593279824213385,0.00709046703492335,-0.00559506007059949,-0.0493382569861955,0.00702943001597135,0.00733461511073133,-0.0164494766075625,-0.154474522131006,-0.00501520839055554,-0.0391857661671804,0.188502660196743,0.00607318338572344,0.0187180191452783,-0.0403658152002523,-0.00475071464176356,0.00671407208471938,0.590329701630706
4.92,4,0.0592872910753705,0.00283822138126774,-0.000417086296171962,-0.0420951974038921,0.021566413363038,0.00224819686473179,-0.00696839299701936,-0.155044200974558,-0.00131229590746788,-0.0425936663920001,0.196000040691346,-0.00796533097323527,0.021688487400942,-0.0373546555986206,-0.000620543026011943,0.00132246874395988,0.565172276985992
4.95,4,0.0605588956368704,0.00622577593310343,-0.00347911008026368,-0.0271207820876695,0.0522985524053672,-0.00440483820103559,-0.011200292977691,-0.158177434614093,-0.00143436994537187,-0.0380565813165685,0.244890692871893,-0.000996937976215908,0.0281177200638854,-0.032227546006653,-0.00381481368449965,-0.0121260210984629,0.577328816593931
4.98,4,0.0621865494755903,0.0065513067008474,-0.00101728364919991,-0.00985747856074709,0.054211045665863,-0.010498367259743,-0.0191351054414502,-0.164362519201229,0.000640888698995941,-0.032451348409477,0.281858780683818,-0.010539058605711,0.0293893246253853,-0.032573422447381,-0.00239061657561978,-0.0169377727591784,0.607084363333028
5.01,4,0.0697754854986216,0.0243435977253538,-0.00688701030508337,0.00462864060385957,0.0421765800958281,-0.0140690328684347,-0.0119327372051149,-0.160496841334269,-0.000823999755851924,-0.0261543626209296,0.334777876115197,-0.0202134261096021,0.0453606779178238,-0.0241604866684978,-0.0119429100416069,-0.0156661681976786,0.622903124078087
5.04,4,0.0809045686208685,0.0352183599353008,-0.0153406374299346,0.0201829076001261,0.0531428978342031,-0.0160934273303425,0.00194301176997182,-0.160781680756045,-0.000417086296171962,-0.0280872015544094,0.35305846329132,-0.0193385621712902,0.0659098076316619,-0.0147709585863826,-0.0183924883775343,-0.0210475987019461,0.635527614164658
5.07,4,0.0947192805770033,0.0445977151809239,-0.021495203507594,0.0402640868353323,0.0666524246955779,-0.0235806349884538,0.00414034445224362,-0.157404299040702,-0.00175990071311584,-0.0241299681590218,0.389029613127028,-0.00926745404421115,0.0883510849330119,-0.00610370189519944,-0.0234178696045818,-0.0296029541917173,0.640146081932025
5.1,4,0.113600065106154,0.0607013153477584,-0.0282804854477574,0.0640888698995941,0.0802636799218726,-0.033163446963917,0.00100711081270791,-0.163752149011709,-9.15555284279916e-05,-0.0238756472467218,0.454654581336914,-0.00134281441694388,0.113406781212806,0,-0.0311593981749931,-0.0390942106387524,0.653818374177272
5.13,4,0.141585538295643,0.0905585904517757,-0.0446994435458439,0.0900092572812077,0.0850856044190802,-0.0422579627877641,-0.00163782667521185,-0.159805088452813,-0.00253303628650777,-0.0379650257881405,0.531490015360983,0.000732444227423933,0.143284401989807,0.00177007354960784,-0.0468662577186397,-0.0460117394533118,0.672017578661458
5.16,4,0.176702169866024,0.113976460056358,-0.0605588956368704,0.116672261726737,0.0876186407055879,-0.0508031454410433,0.0190740684224982,-0.163670766319773,-0.000905382447787917,-0.0492568742942595,0.570665608691671,0.00280770287179174,0.176763206884976,0.000244148075807978,-0.0609963276060264,-0.0518814661091952,0.689738659830521
5.19,4,0.213670257677948,0.122379222998749,-0.0678935107476017,0.145227413759779,0.0953805149489832,-0.0595416119876705,0.021800388602354,-0.161921038443149,0.00352997426272368,-0.0356354462314727,0.6034323150324,0.00782291126234728,0.211737418744469,-0.00168869085767184,-0.0664693136387219,-0.0588600319427066,0.698660237434004
5.22,4,0.257911923581652,0.14681437625253,-0.0775271869055249,0.177475305439416,0.10686564734845,-0.0684835352641377,0.010650959807123,-0.168879258603676,-0.00151575263730786,-0.0356252733949807,0.680817082227037,0.0156763410341706,0.250322987558621,-0.00736513362020732,-0.0780256558936328,-0.0693482263659576,0.699301126133
5.25,4,0.305256304615416,0.158767459130629,-0.086418245999532,0.210364085818049,0.108981597338786,-0.0751060518204291,0.0445875423444319,-0.148411511581774,0.00479140598773156,-0.0497044790999074,0.710440382091739,0.00466933194982757,0.292438530635497,-0.0125736259041108,-0.0863979003265481,-0.0754722739341411,0.697154657633188
5.28,4,0.356130659911903,0.170761233354696,-0.0926135034231595,0.246141951760409,0.122257148960845,-0.08701844335256,0.0390535192927844,-0.160944446139917,-0.00342824589780368,-0.0531022064882351,0.736767682933032,0.0268766340118615,0.335703604235969,-0.0202032532731101,-0.0926033305866675,-0.0863470361440881,0.688945178584145
5.31,4,0.41402427238787,0.195633818577634,-0.10432243822545,0.28573463138727,0.13113803521836,-0.097760958688111,0.043081962543616,-0.165054272082685,0.000559506007059949,-0.0493484298226875,0.850103254290394,0.0354523351746167,0.383200577817113,-0.0305998921679332,-0.104536067791782,-0.0987884151738029,0.689840388195441
5.34,4,0.482324696595152,0.230333363851843,-0.123742383088677,0.325266273995178,0.130334381135492,-0.102888068280079,0.0526444288460952,-0.153457238481806,-0.00269580167037975,-0.0495213680430514,0.942472609637745,0.04294971566922,0.437625253049308,-0.0444451226335439,-0.124261197749769,-0.104057944476658,0.67518133081047
5.37,4,0.558946501052889,0.253415529852189,-0.137801243120619,0.364675842565182,0.127811517685476,-0.11113823867509,0.0664794864752139,-0.160334075950397,0.00711081270790735,-0.021230709758802,1.00193283893348,0.0561540574358348,0.497217729219438,-0.0618305001983703,-0.138116601051871,-0.111514633625294,0.657561978006328
5.4,4,0.64775536362804,0.271055228329315,-0.148055462304554,0.411562445956806,0.148096153650522,-0.126194036683248,0.0813318277535325,-0.12757754244616,0.00784325693533128,-0.00915555284279916,1.09239987385683,0.0952075767286193,0.567573066398104,-0.0799381491541286,-0.149072745953754,-0.125787123223568,0.611916460666728
5.43,4,0.729890845464441,0.27795241147089,-0.15612252164271,0.457421592862738,0.154688151697338,-0.134657836644592,0.0929695527003794,-0.159601631722973,0.00812809635710725,-0.0202846359650461,1.16366059348328,0.0401420127974283,0.634652750226346,-0.0949939471622872,-0.15398622597939,-0.137536749371827,0.548132775861894
5.46,4,0.821660003458764,0.312428154342275,-0.169235307880896,0.497421185949278,0.127394431389304,-0.131941689301228,0.100009155552843,-0.179336934517452,-0.0125837987406028,0.0244961902727337,1.28254036072878,0.101626636555071,0.708853419598987,-0.112572608620462,-0.169774468214972,-0.136641539760531,0.47722810551266
5.49,4,0.919441307819859,0.332946765546637,-0.182215847244687,0.518458611814732,0.0481378622801396,-0.108554338206122,0.131260109256264,-0.217261268959624,0.0132958972950428,-0.0358287301248207,1.21471805983662,0.131199072237312,0.78494623655914,-0.134261096021404,-0.183904538102359,-0.116611224707785,0.363821324299855
5.52,4,1.00392162846767,0.300424207281716,-0.171742912076174,0.514638711711987,-0.0148828597877946,-0.0878577023631499,0.126946826583656,-0.0767337056591489,0.065279091769158,-0.206101667327901,0.890138452304656,-0.118020162561927,0.84621723075045,-0.157455163223161,-0.17289244259977,-0.0875372580136519,0.191513819798374
5.55,4,1.0637582527136,0.210043641468551,-0.097979674672689,0.504079307433292,-0.0412050742108422,-0.0481429486983856,0.136244799137343,-0.0862351349426761,0.0139673045035147,-0.266640217291787,0.493713187047945,-0.234234646646524,0.886593218787194,-0.176905626595864,-0.0771457055370749,-0.0382193467004405,0.0663370667643259
5.58,4,1.12508519750562,0.219143243710644,-0.0172785627816604,0.497141432945748,-0.00471510971404157,-0.000773135573391929,0.124607074190497,-0.21988586077456,-0.0159815261289305,-0.254376862900683,0.32921842097232,-0.189947202978607,0.910321359904782,-0.214534948779768,-0.0262967823318176,-0.00684631895911537,0.0191249326049582
5.61,4,1.16779585151728,0.158416496271655,-0.0281126336456394,0.490167953530483,-0.0136061688080487,-0.0032807397686697,-0.0396435438093204,-0.144199957274087,0.0133365886410108,-0.288272754092023,-0.129678233181758,-0.0708232876572975,0.917198197373374,-0.250338246813359,-0.0295520900092573,-0.00447604805647959,0.00522883795688752
5.64,4,1.17155980101932,0.0295775221004873,-0.0159815261289305,0.481836400443536,-0.0123905148472549,-0.000579851680043947,-0.0566118350779748,-0.126784061199784,-0.00188197475101983,-0.160049236528621,-0.648726869513026,-0.0921964171269875,0.882549516281625,-0.288755963825393,-0.00986256497899309,-0.0021261228268278,0.00235501164789778
5.67,4,1.16196681620736,-0.0188604388561663,-0.0304778181300292,0.475366476434624,-0.011037527593819,-0.0451826532792138,-0.0296538183741773,-0.147495956297494,0.00790429395428327,-0.145196895250303,-1.04639322082176,-0.0681325724051637,0.713838109480066,-0.447904904324473,-0.0572628966134627,-0.128742332224494,0.00175990071311584
5.7,4,1.10895616524756,-0.171854813277586,-0.087333801283812,0.406165756197801,-0.333048493911557,-0.105965351318908,-0.19184952340261,-0.0403149510177923,0.00843328145186722,-0.119602038636433,-1.68131555121515,-0.0519272438734092,0.570050152083906,-0.53865169225135,-0.0909044668925036,-0.129978331858272,0.00167851802117985
5.73,4,1.01067130548011,-0.327382223985514,-0.0498367259743034,0.26176742861212,-0.503936887722404,-0.0128279468164108,-0.087211727245908,-0.0826339508245084,0.0191351054414502,-0.0584836369925026,-2.45248268074587,-0.206900234992523,0.415911333557136,-0.594515823847163,-0.0521357870214952,0.0287026581621754,0.00167851802117985
5.76,4,0.889792575863928,-0.406882941170487,-0.0287128309986674,0.116992706076235,-0.487838373973815,-0.00300607318338572,-0.0376089765109205,-0.198787397890154,-0.0247912025310017,-0.253039134901985,-2.68855861079745,-0.239804274625894,0.242764570045066,-0.646799116997792,-0.0275378683838415,0.104530981373536,0.00167851802117985
5.79,4,0.752143925290689,-0.461465295368307,-0.0120649840795109,-0.00100711081270791,-0.354594561601611,0.0820286670532344,0.0431023082166,-0.225480920845159,0.00169886369416384,-0.240943632312998,-2.87394838302764,-0.179748934395377,0.0743074841558072,-0.677617725150304,-0.00368765322834966,0.136265144810327,0.00167851802117985
5.82,4,0.603981648202968,-0.490096743675039,0.0155237484867906,-0.0302896206549272,-0.032741274249499,0.0478937142043316,0.138625242876471,-0.329406618447422,-0.0164901679535305,-0.115639718822799,-2.55908892076378,-0.032390311390525,-0.0890428378144678,-0.692907498397778,0.0157170323801386,0.0407930743329162,0.00167851802117985
5.85,4,0.459837641529588,-0.478825240841904,0.0286111026337474,-0.0148625141148106,0.0583768222093366,-0.00147506129133986,0.119907223731193,-0.315937782932015,-0.0224311044648579,-0.0659454125593839,-2.29677215898109,0.215348775699128,-0.234738202052878,-0.6944690287993,0.0300200404878892,-0.0120598976612649,0.00155644398327586
5.88,4,0.332178716391491,-0.428083132419813,0.032293669443851,-0.00778221991637928,0.0124057741019929,-0.00356049277219967,0.108676412244026,-0.280312509537034,-0.0263171280048016,0.0232957955666779,-1.87604398734499,0.463876257616911,-0.358877325764743,-0.690989918719036,0.0354879401023387,-0.00169886369416384,0.00152083905555386
5.91,4,0.228436129846085,-0.349609871720532,0.0332651753288369,-0.0075991088595233,0.000157678965625985,0.00393688772240364,0.115044607888017,-0.242367829421878,-0.0183619698680583,0.0706045716727195,-1.46561581265704,0.642440056560971,-0.459395123142186,-0.687749870296335,0.0341909034496089,0.00396740623187963,0.00156153040152186
5.94,4,0.152348399304178,-0.259381898454746,0.0278735719880774,-0.00641905982645141,0.00675984984893338,0.00357575202693767,0.0961841690318512,-0.175674713380332,-0.0144556006551307,0.130644652648498,-1.13046154159164,0.71276487523016,-0.535945717744479,-0.688207647938475,0.0276599424217455,0.00189723400575783,0.00167851802117985
5.97,4,0.0958382925911232,-0.192246264025798,0.02216152429782,-0.00633767713451542,-0.000381481368449965,0.00238553015737378,0.0985239214250109,-0.156407361064486,-0.00340790022481969,0.157134718873664,-0.761096021403648,0.710084332814519,-0.59185054068626,-0.687592191330709,0.021871598457798,0.00395723339538764,0.00167851802117985
6,4,0.0533209224728131,-0.145369833470667,0.0187231055635243,-0.00513219601021353,0.00192266609698782,0.000223802402823979,0.0895718253120518,-0.140334279407127,0.0157170323801386,0.128503270566932,-0.432482884202602,0.597628711813715,-0.603228858302561,-0.656483657338176,0.0185806858526363,0.00150557980081586,0.00167851802117985
6.03,4,0.021978413240964,-0.107002980641092,0.0163121433149205,-0.00518814661091952,0.000152592547379986,0.00065106153548794,0.075635039318013,-0.130059714550208,0.0318918424024171,0.0913164667704296,-0.15317239906003,0.371054211045666,-0.484547461368653,-0.506413973408205,0.0154881435590686,0.00300607318338572,0.00167851802117985
6.06,4,0.00361135695465967,-0.0639820551164281,0.0123447370830409,-0.00531530706706951,0.000152592547379986,0.000676493626717938,0.0553097120069989,-0.137302774132511,0.0302031515447452,0.0412050742108422,0.120171717479985,0.0889309366130558,-0.360606707968383,-0.364090904466893,0.010717083244321,0.00305185094759972,0.00167851802117985
6.09,4,-0.0065360474461094,-0.0362305571662547,0.00798567664621926,-0.0053966897590055,0.000152592547379986,0.00114953052359589,0.0395825067903684,-0.141026032288583,0.0199285866878262,0.0347148045289468,0.322448398286894,-0.157689138462477,-0.259722688477228,-0.252983184301279,0.00685140537736137,0.00305185094759972,0.00167851802117985
6.12,4,-0.00816370128482925,-0.00748720765811131,0.00381481368449965,-0.00549333170567949,0.000152592547379986,0.0032502212591937,0.021312092450738,-0.145522426018047,0.0148625141148106,0.0470900601214637,0.558290353099155,-0.320947904904324,-0.170059307636748,-0.161681976785587,0.00236009806614378,0.00305185094759972,0.00167851802117985
6.15,4,-0.0075838496047853,-0.000142419710887987,0.000152592547379986,-0.00557980081586149,0.000152592547379986,0.00316883856725771,-0.00582903530991546,-0.162755211035493,0.0163070568966745,0.0338602862636189,0.65584276863918,-0.370993174026714,-0.109403770053204,-0.101626636555071,0.000717184972685934,0.00305185094759972,0.00167851802117985
6.18,4,-0.00461846776736758,0.00737530645669932,0.000152592547379986,-0.00577817112745547,0.000152592547379986,0.00313832005778171,-0.0166732790103865,-0.185216834009827,0.010488194423251,0.00567644276253548,0.792143518377229,-0.343907996866766,-0.0630461541591642,-0.0582293160802026,-0.000244148075807978,0.00305185094759972,0.00167851802117985
6.21,4,-0.00208543148085981,0.00161239458398185,0.000152592547379986,-0.00595110934781945,0.000152592547379986,0.00300098676513972,-0.0474969735811436,-0.188207647938475,-0.00129195023448388,0.00746177556688131,0.915260272021648,-0.290556555884477,-0.010488194423251,-0.00812809635710725,0.000137333292641987,0.00305185094759972,0.00167851802117985
6.24,4,0.00557980081586149,0.0127109591967528,-0.000116987619657989,-0.00615456607765943,0.000152592547379986,0.00336212246060569,-0.0804366181422366,-0.181615649891659,-0.0075787631865393,0.0261441897844376,0.760938342438022,-0.212251146987314,0.0392417167678864,0.0337585578986989,-0.00171920936714784,0.00340281380657369,0.00167851802117985
6.27,4,0.010869675791701,0.00506098615476953,-0.00258390046896776,-0.00629189937030142,0.000152592547379986,0.00348419649850968,-0.0952075767286193,-0.180578020569475,-0.0142114525793227,0.0557318847214169,0.69495223853267,-0.161254717652923,0.0836156295459863,0.0728324228644673,-0.00170903653065584,0.00350962858973968,0.00167851802117985
6.3,4,0.0142368846705527,0.000320444349497971,0.000371308531957966,-0.00640888698995941,0.000152592547379986,0.00338755455183569,-0.0805180008341726,-0.19174779503769,-0.0172429578539384,0.0730358795943073,0.585446740114546,-0.0788242235582547,0.120812606178981,0.106646931363872,-0.000930814539017914,0.00350962858973968,0.00167851802117985
6.33,4,0.0159764397106845,-0.000340790022481969,0.00043743196915596,-0.0076499730419833,-0.00717693614510534,0.00404878892381563,-0.175796787418236,-0.338623208309173,0.117384360281177,-0.163696198411003,-0.0617287718334503,-0.0574002299061047,0.137373983987955,0.121438235623239,-0.00122074037903989,0.00532039348531551,0.0459100110883918
6.36,4,0.0102898241116571,-0.0143182673624887,0.000147506129133986,-0.0261696218756676,-0.075884273812067,0.0137740206101667,-0.13378297270628,-0.271787672556739,0.0205796482233141,0.0585497604297006,0.442955819371115,0.17296873887346,0.132984405041658,0.122781050040183,0.00118004903307189,0.0363271991129287,0.397574795780307
6.39,4,0.0238349559007538,0.0384278898485265,-0.00459303567613758,-0.0490381583096815,-0.0575528224534847,0.0384126305937885,0.0405387534206163,-0.22039450259916,-0.000498468988107954,0.146198919644765,0.551952675964639,0.259559923093356,0.124230679240293,0.100507624540951,-0.0138147119561347,0.0400555436872463,0.602516759748121
6.42,4,0.0605843277281004,0.110181992044842,-0.0511947996459853,-0.0461439863277078,0.0288399914548173,0.0144301685639007,-0.00818913337605925,-0.165827407656077,-0.022207302062034,0.0478123315123956,0.608533992533138,0.0422528763695181,0.160323903113905,0.0998260444959868,-0.0583056123538926,0.00175990071311584,0.754325998718223
6.45,4,0.0832239753410444,0.0724916328419853,-0.0457167271950438,-0.0259102145451216,0.0723695588040813,-0.00726340525528733,0.00983713288776309,-0.165542568234301,-0.00346893724377168,0.00996937976215908,0.446312855413475,0.00255338195949177,0.190008239997559,0.10686564734845,-0.0428785058137761,-0.0183517970315663,0.793064160079755
6.48,4,0.0988189336832789,0.0467747021902117,-0.0304269539475692,0.000956246630247912,0.0827255063529364,-0.0193080436618142,-0.00908434298735517,-0.156956694235054,-0.00375377666554765,0.00536108483128351,0.401409955137791,0.00822982472202724,0.215338602862636,0.116621397544277,-0.0268868068483535,-0.0301217688528092,0.78403068127486
6.51,4,0.114464756207973,0.0463881344035157,-0.0250862147892697,0.0184840439059623,0.0456963815220598,-0.0231737215287739,-0.0121768852809229,-0.161066520177821,-0.0137231564277067,-0.0273445844904935,0.389182205674408,0.0200913520716982,0.238990447706534,0.124596901354005,-0.0252998443556017,-0.0207627592801701,0.742586545406456
6.54,4,0.128615171768344,0.043488876003296,-0.0249336222418897,0.0333058666748049,0.0499893185216834,-0.0209967345194861,0.011179947304707,-0.153620003865678,-0.00318409782199571,-0.0486770226142155,0.384990997039705,0.0132755516220588,0.262011576687928,0.13347778761152,-0.0240180669576098,-0.02172917874691,0.721661020742414
6.57,4,0.144678080589211,0.0512202317372153,-0.0251777703176977,0.0570696127201148,0.0831934568315684,-0.0294300159713533,0.00829086174097924,-0.156305632699566,-0.00249234494053977,-0.0501012197230954,0.416648864202806,0.00403861608732363,0.285958433790094,0.141371908729311,-0.0268969796848455,-0.0379243344421725,0.711030406608275
6.6,4,0.165715506454665,0.0679138564205857,-0.0332956938383129,0.0829391359192684,0.0797346924242887,-0.0398775190486363,-9.15555284279916e-05,-0.162531408632669,-0.0032654805139317,-0.0592974639118625,0.441216264330983,0.00129195023448388,0.312061932228563,0.146427808465835,-0.0362458164209927,-0.04396699931842,0.708507543158259
6.63,4,0.185796685689871,0.06488235114597,-0.0379650257881405,0.103803623564358,0.065279091769158,-0.0419222591835281,0.0205796482233141,-0.158543656727805,-0.00151575263730786,-0.0688192388683737,0.426384268725649,-0.0152287362285226,0.337951801100701,0.152246670939258,-0.0368053224280526,-0.0419731233659881,0.708395641956847
6.66,4,0.205521815647857,0.06579790643025,-0.0346181625822728,0.125868505915504,0.0708436333302815,-0.0447808262377799,0.010813725190995,-0.164443901893165,0.00149540696432386,-0.054404329559211,0.459913937803278,-0.0169072542497024,0.364187546413566,0.158757286294137,-0.0352895697907448,-0.0472223069958597,0.709738456373791
6.69,4,0.231004771060315,0.0845260984120202,-0.043275246436964,0.148869289223914,0.076540421765801,-0.0532141076896471,0.0169174270861944,-0.161880347097181,0.000356049277219967,-0.0525528733176672,0.528580584124271,-0.0142521439252907,0.394044821517584,0.163101087476221,-0.0449842829676199,-0.0527359843745231,0.703553371786655
6.72,4,0.261604663228248,0.101992858668783,-0.0549129713838109,0.174626911221656,0.0831832839950764,-0.0604775129449344,0.0196844386120182,-0.163467309589933,-0.00143436994537187,-0.04294971566922,0.585446740114546,-0.00255338195949177,0.427818638671021,0.166285185298217,-0.0552690206610309,-0.0608539078951384,0.681925921404665
6.75,4,0.295073295286925,0.110955127618234,-0.0606301054923144,0.200435397401858,0.0861334065777561,-0.06554358551795,0.0381583096814885,-0.154271065401166,0.0043031098361156,-0.0273140659810175,0.614561398154647,0.00700908434298736,0.463799961343221,0.168828394421216,-0.0604673401084424,-0.06564531388287,0.65762301502528
6.78,4,0.333048493911557,0.127587715282652,-0.0681376588234097,0.229834894863735,0.100975575019583,-0.0775678782514929,0.0408439385153762,-0.146783857743054,0.00129195023448388,-0.0228278450880459,0.658792891221859,0.00463881344035157,0.501968443861202,0.169021678314564,-0.0689209672332936,-0.076235236671041,0.640878526159449
6.81,4,0.374848679057181,0.141514328440199,-0.0770795820998769,0.264585304320404,0.118218532873521,-0.0875270851771599,0.0388907539089124,-0.15622425000763,0.000478123315123956,-0.0126855271055228,0.721925514491206,0.0196335744295582,0.54338206122013,0.168614764854884,-0.0766218044577369,-0.0891140476699118,0.624571469262775
6.84,4,0.422752566098005,0.162266914883877,-0.0886155786818038,0.299193294066185,0.111514633625294,-0.0932543921221554,0.0365713471887366,-0.166478469191565,-0.00635802280749942,-0.0157882422355825,0.824498224840032,0.0401521856339203,0.589760022787154,0.167088839381085,-0.0881679738761559,-0.0934781945249794,0.615080212815739
6.87,4,0.480147709585864,0.193660288298186,-0.10345774712363,0.334218370108137,0.118503372295297,-0.100019328389335,0.0677002268542538,-0.153050325022126,-0.00391654204941964,-0.0295317443362733,0.918352814315215,0.0785139520452488,0.642679118218533,0.162612791324605,-0.104403820917386,-0.101911475976847,0.60577206742556
6.9,4,0.542100283822138,0.209641814427117,-0.115248064617857,0.37015900143437,0.119612211472925,-0.110354930265206,0.0611896114993744,-0.165054272082685,0.0162256742047385,-0.0201829076001261,0.980885240231534,0.0423291726432081,0.699341817478968,0.157322916348766,-0.114739422793257,-0.108767967772454,0.596484267708365
6.93,4,0.611021251055432,0.232693461917987,-0.126122826827804,0.411033458459222,0.144332204148483,-0.121779025645721,0.0845464440850042,-0.127333394370352,-0.00892157760348318,-0.0336619159520249,1.08728293710135,0.0608335622221544,0.761914934741254,0.151005584887234,-0.127302875860876,-0.123813592944121,0.552588478245389
6.96,4,0.681559699290953,0.237891781365398,-0.13276568905708,0.451439965005442,0.132328257087924,-0.127638579465112,0.0931323180842514,-0.122043519394513,0.010976490574867,-0.0410473952452162,1.0793379518011,0.0707724234748375,0.82713298949146,0.145654672892443,-0.132338429924416,-0.129744356618956,0.476353241574348
6.99,4,0.754641356649475,0.249478642129785,-0.136763613798435,0.486831263161107,0.115766879278949,-0.125929542934456,0.0888190354116438,-0.196956287321594,0.0143945636361787,-0.0289925840021973,1.20168665629037,0.0272937203080335,0.895199438459426,0.140649637338379,-0.136316008992787,-0.129927467675812,0.439781894385612
7.02,4,0.837946714682455,0.283160903754794,-0.154555904822942,0.513606168808049,0.0793277789646087,-0.115868607643869,0.108472955514186,-0.194229967141738,-0.0203558458204901,0.0570492670471308,1.30164494766076,0.162104149500005,0.970844650613931,0.132979318623412,-0.155135756502986,-0.123254086937061,0.383149713634653
7.05,4,0.925870540482803,0.301238034201076,-0.165217037466557,0.517868587298196,0.00032553076774397,-0.0962350332143111,0.123121840062665,-0.183568834498123,0.00625629444257942,0.0984628844060589,1.29530727052624,0.241798150578326,1.04989776299326,0.124108605202389,-0.166610716065961,-0.0960926135034232,0.28273364462213
7.08,4,1.00700908434299,0.278216905219682,-0.15693634856207,0.513484094770145,-0.0155949583422346,-0.0832951851964883,0.130853195796584,-0.0600705994852545,0.0453199865718558,-0.0501215653960794,0.962706381420331,0.0683818068992177,1.11841181676687,0.11149428795231,-0.159855952635273,-0.0884019491154719,0.113589892269662
7.11,4,1.06151514226712,0.191890214748578,-0.0849431847081922,0.494928841008739,-0.0732342499059013,-0.053966897590055,0.162917976419365,-0.0668660542619098,0.0397859635202083,-0.210242011780145,0.503779208756778,-0.156285287026582,1.16086306344798,0.0994394767092908,-0.0662048198899299,-0.0235094251330098,0.0351166315703808
7.14,4,1.1187576932076,0.205216630553097,-0.0139571316670227,0.470015564439833,-0.0721559292377494,-0.00910468866033916,0.135085095777256,-0.217261268959624,0.00287891272723574,-0.202856532486953,0.341095207576729,-0.172856837672048,1.18557288328705,0.0669169184443698,-0.022247993408002,0.0238959929197058,0.00963367615792311
7.17,4,1.16125980407117,0.156702373322754,-0.0255439924314096,0.455610827967162,-0.0258084861802016,0.00774152857041129,0.00674459059419538,-0.139703563544623,-0.0197047842850022,-0.194352041179642,-0.0774356313770969,0.00803654082867926,1.19412823877682,0.032919298888109,-0.0269376710308135,0.0122175766268909,0.0032451348409477
7.2,4,1.1675771355327,0.0364391003143406,-0.0155746126692506,0.451846878465122,0.00479140598773156,0.00404878892381563,-0.0470493687754957,-0.101535081026643,-0.0208034506261381,0.0693583992024496,-0.547624134037294,0.0452182582069358,1.17336547949665,0.00592059083834346,-0.00952177495651112,-0.000406913459679963,0.00196335744295582
7.23,4,1.15839106418043,-0.0167953530482905,-0.033041372926013,0.446933398439487,-0.00922676269824315,-0.0411491236101362,-0.0312204351939451,-0.12554297514776,-0.00627664011556342,0.169092888170008,-0.859004486220893,0.151636300749738,1.10651977090772,-0.0516474908698792,-0.0607420066937264,-0.127750480666524,0.00167851802117985
7.26,4,1.10827967162084,-0.162836593727429,-0.0893276772362438,0.375998209580777,-0.335835851110365,-0.0996937976215908,-0.242815434227526,0.0279447818435214,0.0172022665079704,0.145390179143651,-1.52281258583331,0.224260180466119,0.93287962482579,-0.175186417228716,-0.0915860469374676,-0.111738436028118,0.00167851802117985
7.29,4,1.01821955015717,-0.300485244300668,-0.0552588478245389,0.238725953957742,-0.463799961343221,0.021301919614246,-0.0729697561571093,-0.0850957772555722,0.0389314452548804,0.0689616585792616,-2.18718019145278,-0.00452691223893958,0.789646087018443,-0.228319142226427,-0.0575375631987467,0.032146163314717,0.00167851802117985
7.32,4,0.903581855728833,-0.388154749188716,-0.032970163070569,0.133905046744184,-0.32166508987701,0.0308542130802332,-0.0447299620553199,-0.130873541469568,0.011220638650675,0.0720948922187974,-2.48975086723431,0.0519933673106072,0.584917752616962,-0.318419955036063,-0.0316680399995931,0.0451267026785078,0.00167851802117985
7.35,4,0.774371573025707,-0.439074882249418,-0.0174413281655324,0.0739361756238492,-0.171941282387768,0.0276446831670075,-0.0138452304656107,-0.185440636412651,0.0065411338643554,0.0296995961383913,-2.80513931699576,-0.00586464023763746,0.394161809137242,-0.380006307158625,-0.00940987375509914,0.0256864121422976,0.00167851802117985
7.38,4,0.633508306120996,-0.479028697571744,0.00800093590095726,0.0513321329386273,-0.054511144342377,0.00745160273038931,0.106702881964578,-0.346029033275348,0.0122786136458429,0.0359304584897407,-2.62086855677969,0.0827509384441664,0.232515437279377,-0.400753807184057,0.0102186142562131,-0.0032858261869157,0.00167851802117985
7.41,4,0.485000152592547,-0.490228990549435,0.0270953499964395,0.0489415163630075,-0.00150557980081586,-0.00817896053956725,0.0996632791121148,-0.342061627043469,0.00932849106316314,0.0523036388236132,-2.39360738954843,0.184006266467279,0.0827153335164444,-0.402045757418541,0.0290587074393953,-0.0247250790938037,0.00167851802117985
7.44,4,0.351985229041414,-0.444797102776167,0.032858261869157,0.0472426526688437,-0.00752789900407931,-0.0175684886216824,0.0998463901689708,-0.323384299244158,-0.00627664011556342,0.075858841720837,-1.98825037385174,0.228802351959797,-0.0479038870408236,-0.399772128462579,0.0361135695465967,-0.0226447340311899,0.00167851802117985
7.47,4,0.2434207179988,-0.364701274656412,0.0332855210018209,0.0455285297199418,-0.00727866451002533,-0.0207983642078921,0.107598091575874,-0.287657297484258,-0.0138655761385947,0.100248217210405,-1.59002960295419,0.284218878749962,-0.1554358551795,-0.398820968250577,0.0351268044068728,-0.021795302184108,0.00167851802117985
7.5,4,0.163024791202531,-0.272682882168035,0.0290078432569353,0.0421053702403841,-0.0133162429680268,-0.0200964384899441,0.0854009623503321,-0.224077069409263,-0.010996836247851,0.136692403942991,-1.22729677215898,0.30092776268807,-0.2380799788405,-0.401023387351095,0.0288908556372773,-0.0185247352519303,0.00167851802117985
7.53,4,0.106087425356812,-0.194708090456862,0.021841079948322,0.0347656687114068,-0.0290993987853633,-0.0154372793766086,0.0713217566454054,-0.193639942625202,-0.00271614734336375,0.15299437442142,-0.855479598376415,0.26441236610004,-0.29963072603534,-0.405616423027233,0.02142399365215,-0.00933866389965514,0.00167851802117985
7.56,4,0.0661895606351919,-0.135751416567481,0.0173802911465804,0.0250251777703177,-0.0308592994984792,-0.00387076428520564,0.0753501998962371,-0.171076591285948,0.0076194545325073,0.169886369416384,-0.519018117821792,0.137908057903785,-0.339828689433475,-0.405931780958485,0.0160425631478825,-0.00194809818821782,0.00167851802117985
7.59,4,0.0399792474135563,-0.0900194301176997,0.0123193049918109,0.021820734275338,-0.00566118350779748,-0.00297046825566373,0.0533565274005351,-0.153843806268502,0.0140283415224667,0.166819259214047,-0.28598895229957,-0.0785139520452488,-0.310668253629159,-0.35054068625955,0.011042614012065,-0.00795515813674327,0.00167851802117985
7.62,4,0.0234534745323038,-0.0565151931313008,0.00888088625751518,0.021851252784814,0.000152592547379986,-0.00661743013804539,0.0478835413678396,-0.15378276924955,0.0138248847926267,0.163696198411003,-0.0715252133752454,-0.273298338775801,-0.23787652211066,-0.261248613951028,0.00727866451002533,-0.0114444410534989,0.00167851802117985
7.65,4,0.0157628101443525,-0.0272937203080335,0.00494908495335754,0.0206661173334961,-0.00683614612262337,-0.00957263913897112,0.0521968240404472,-0.158055360576189,0.00967436750389111,0.146224351735995,0.122979420351777,-0.332524592832219,-0.171961628060752,-0.187622709840185,0.00315866573076571,-0.00878424431084119,0.00167851802117985
7.68,4,0.0115309101636809,-0.0147150079856766,0.000579851680043947,0.0190893276772362,-0.00339772738832769,-0.00858587399924721,-0.0691040782901497,-0.194148584449802,0.0713827936643574,-0.0136722922452467,0.158538570309559,-0.287550482701092,-0.151855016734316,-0.163268939278339,0.000961333048493912,-0.00927762688070314,0.00198370311593982
7.71,4,-0.00053916033407595,-0.0402946053448083,0.00378429517502365,0.00969471317687511,-0.0405336670023703,-0.000152592547379986,-0.101250241604867,-0.214982553585416,0.0308949044262012,0.0116784162928149,0.125802382478306,-0.134459466332998,-0.144810327463607,-0.144103315327413,0.00555945514287749,0.00613930682292144,0.0577105014191107
7.74,2,-0.010391552476577,-0.0336313974425489,0.00728375092827133,-0.0174718466750084,-0.0991953286334829,0.0196895250302642,-0.0570187485376548,-0.153152053387046,0.0209051789910581,0.000996937976215908,0.187149672943307,0.199433373007396,-0.146000549333171,-0.135369935199032,0.00713115838089134,0.0407116916409802,0.161285236162399
7.77,2,-0.011373231198055,-0.00447096163823359,0.00367748039185766,-0.0454725791192358,-0.075701162755211,0.0461592455824458,-0.0424715923540961,-0.162511062959685,-0.00707012136193935,0.022039450259916,0.283359274066388,0.284727520574562,-0.163040050457269,-0.15144301685639,0.00209560431735181,0.0455488753929258,0.237276324757632
7.8,2,-0.011291848506119,3.05185094759972e-05,0.000462864060385957,-0.0631021047598702,-0.0571459089938047,0.032547990356151,-0.0588498591062146,-0.167495752840765,-0.021312092450738,0.0424359874263741,0.243059582303334,0.0908129113640756,-0.150542720826848,-0.139006724244921,0.000228888821069979,0.0304015218563392,0.323338521479944
7.83,2,-0.0143589587084567,-0.0098167872147791,0.00268562883388775,-0.0833002716147343,-0.0633513392539242,0.0349742118594928,-0.0490432447279275,-0.14788252408419,-0.00912503433332316,0.0458896654154078,0.23434146142969,-0.011103651031017,-0.154530472731712,-0.139917193110955,0.00411999877925962,0.0375988036744285,0.384787540309865
7.86,2,-0.0200710063987142,-0.0184687846512243,0.00881476282031719,-0.102211574653361,-0.0598366242459385,0.0399843338318023,-0.0457675913775038,-0.158116397595141,-0.0011088391776279,0.0176142663858964,0.224300871812087,0.0927915280617695,-0.154357534511348,-0.134067812128056,0.0151982177190466,0.0448825546026999,0.453403322448398
7.89,2,-0.0250302641885637,-0.0143233537807347,0.0239417706839198,-0.116829940692363,-0.0425529750460321,0.0461083813999858,-0.0497960346283354,-0.158767459130629,-0.00900296029541917,0.0230211289813939,0.263807082328766,0.0964384899441511,-0.150293486332794,-0.12505976541439,0.0235806349884538,0.0455234433016958,0.532685323648793
7.92,2,-0.0255389060131637,-0.000986765139723909,0.0179855749178543,-0.127109591967528,-0.0316222622353791,0.0409914446445102,-0.0452182582069358,-0.158909878841517,-0.0101219723095391,0.00728883734651733,0.286482334869432,0.0923846146020895,-0.147465437788018,-0.121717988626769,0.0164087852615945,0.0400860621967223,0.616885891293069
7.95,2,-0.0273140659810175,-0.00480157882422356,0.0164087852615945,-0.135863317768893,-0.0279651275165054,0.0396486302275664,-0.0453199865718558,-0.159866125471765,-0.0130924405652028,-0.00370799890133366,0.259977009389528,0.0370189519943846,-0.141992451755323,-0.114429151280251,0.0181839452294483,0.0392722352773624,0.69815668202765
7.98,2,-0.0316527807448551,-0.0124057741019929,0.0232652770572019,-0.145278277942239,-0.0273954486729535,0.0412864569027782,-0.0268054241564175,-0.171076591285948,-0.00298064109215573,-0.000666320790225939,0.223232723980427,-0.000315357931251971,-0.135415712963246,-0.10353404339732,0.0248064617857397,0.0429090243232521,0.778827275409202
8.01,2,-0.0404573707286803,-0.0280922879726554,0.033117669199703,-0.146860154016744,-0.000503555406353954,0.032659891557563,-0.0244046347443058,-0.162877285073397,-0.00285856705425174,0.0254778689942117,0.16892503636789,-0.00196844386120182,-0.123564358450067,-0.0828679260638244,0.0367798903368226,0.0272733746350495,0.853546759442935
8.04,2,-0.054582354197821,-0.0445214189072339,0.053849909970397,-0.146656697286905,0.000467950478631957,0.0271309549241615,-0.0367341125726086,-0.15693634856207,-0.00631733146153142,0.0352285327717928,0.138950773644215,0.00341298664306569,-0.121041495000051,-0.0662658569088819,0.0548824528743349,0.0263985106967376,0.903744621112705
8.07,2,-0.0611336608986684,-0.0205135247861161,0.0525884782453892,-0.141672007405825,0.0204830062766401,0.0230770795820999,-0.0462151961831517,-0.158645385092725,-0.010508540096235,0.0389009267454044,0.249061555833613,0.0225480920845159,-0.128406628620258,-0.0670796838282418,0.0510371206803593,0.0163833531703645,0.949969990132349
8.1,2,-0.0618661051260923,-0.00311288796655171,0.0376852727846105,-0.131280454929248,0.0335398419141209,0.0132348602760908,-0.0300403861608732,-0.157994323557237,-0.010854416536963,0.0224819686473179,0.256538590655232,0.0086926887824132,-0.121860408337657,-0.0597552415540025,0.0385652231411685,0.00607318338572344,0.977284056113366
8.13,2,-0.0624459568061363,-0.00097659230323191,0.0401013214514603,-0.118935717846207,0.0383566799930825,0.00150557980081586,-0.032868434705649,-0.161208939888709,-0.0143742179631947,-0.00890631834874518,0.267713451541693,0.00629189937030142,-0.115482039857173,-0.0527868485569831,0.0389619637643564,0.00171920936714784,0.994984791609445
8.16,2,-0.0625629444257942,0.000147506129133986,0.0380667541530605,-0.105461795912554,0.0414288766136662,-0.000254320912299977,-0.0290027568386893,-0.158909878841517,-0.00987782423373109,-0.0277514979501734,0.274473301390627,-0.00594602292957345,-0.108020264290292,-0.0452640359711498,0.0381481368449965,-0.00175481429486984,0.999684642068748
8.19,2,-0.0625629444257942,0.000152592547379986,0.0381633960997345,-0.0896582944222337,0.0500300098676514,-0.00466933194982757,-0.0294096702983693,-0.158767459130629,-0.0076601458784753,-0.0318308053834651,0.291629790134383,-0.00613930682292144,-0.098025452436903,-0.0352437920265308,0.0381481368449965,-0.0102949105299031,0.99977111117893
8.22,2,-0.0625629444257942,0.000152592547379986,0.0381735689362265,-0.0741548916084272,0.0484125288654235,-0.00797550380972727,-0.0225124871567939,-0.157953632211269,-0.00835189875993123,-0.0361084831283507,0.305790378531246,-0.010915453555915,-0.0885647144993438,-0.0258033997619556,0.0381481368449965,-0.011235897905413,0.991515854365673
8.25,2,-0.0625629444257942,0.000152592547379986,0.0382549516281625,-0.0569475386822108,0.0552995391705069,-0.0125176753034048,-0.0201116977446821,-0.157363607694734,-0.00749738049460331,-0.0378989023509425,0.323170669677826,-0.011286762087873,-0.0737937559129612,-0.011062959685049,0.0381481368449965,-0.0184993031607003,0.996139408551286
8.28,2,-0.0624459568061363,0.000152592547379986,0.0381176183355205,-0.0416119876705222,0.0452080853704438,-0.0158289335815505,-0.0189316487116103,-0.159886471144749,-0.00743634347565132,-0.0464237393312377,0.332580543432925,-0.0209051789910581,-0.0617948952706483,0.000823999755851924,0.0381481368449965,-0.0160323903113905,0.995157729829808
8.31,2,-0.0623798333689383,0.000152592547379986,0.0383109022288685,-0.0239875484481338,0.0611489201534064,-0.0178635008799504,-0.0149845881527146,-0.160496841334269,-0.00582903530991546,-0.0483209733369956,0.359375794752851,-0.0159916989654225,-0.0477004303109836,0.0147404400769066,0.0381481368449965,-0.0236213263344218,0.99577827285582
8.34,2,-0.0610370189519944,0.00478123315123956,0.0377107048758405,-0.000803654082867926,0.0742210150456252,-0.0296741640471613,-0.0209255246640421,-0.165623950926237,-0.0065207881913714,-0.0517492192347992,0.390677612638732,-0.0200608335622222,-0.0275989054027935,0.0335296690776289,0.0359813226722007,-0.0394807784254484,1
8.37,2,-0.0586667480493586,0.00726340525528733,0.0320444349497971,0.0176702169866024,0.0533565274005351,-0.0358795943072807,-0.010467848750267,-0.164199753817357,-0.00741599780266732,-0.0636717836034221,0.41397340820541,-0.0272428561255735,-0.00673441775770338,0.0520544043295592,0.032553076774397,-0.0350555945514288,1.00379446801152
8.4,2,-0.0520340586565752,0.0201829076001261,0.0265612760806096,0.0406811731315043,0.0707520778018535,-0.0507014170761233,-0.00188197475101983,-0.164443901893165,-0.00493382569861955,-0.076550594602293,0.487238176620787,-0.02137312946969,0.021749524419894,0.0739666941333252,0.0231737215287739,-0.0551774651326029,1.01110873744926
8.43,2,-0.0420341603849401,0.032237718843145,0.0159408347829625,0.064719585762098,0.076631977294229,-0.075950397249265,-0.00859604683573921,-0.167495752840765,0.000559506007059949,-0.076387829218421,0.591377503789382,-0.0293079419334493,0.053885514898119,0.0961638233588672,0.010834070863979,-0.076499730419833,1.00563575141657
8.46,2,-0.0304879909665212,0.032095299132257,0.00677510910367138,0.0908027385275836,0.0863266904711041,-0.100670389924823,-0.00778221991637928,-0.170140690328684,-0.00534073915829951,-0.0863572089805801,0.782616657002472,-0.021769870092878,0.0954924161503952,0.126214382356232,0.00320444349497971,-0.103030487990967,1.00405896176031
8.49,2,-0.00558488723410749,0.0671203751742098,-0.0075787631865393,0.119368063397117,0.0891547390158798,-0.130049541713716,0.0252998443556017,-0.159967853836685,0.00890123193049918,-0.104790388704082,0.732779931028169,-0.0778120263273008,0.141748303679515,0.14752647480697,-0.0223497217729219,-0.136275317646819,0.989155756299529
8.52,2,0.0302845342366812,0.100385550503047,-0.0628070925016022,0.142379019542019,0.06559444970041,-0.151158177434614,0.0229397462894579,-0.17836034221422,-0.0239366842656738,-0.140883612577695,0.746197902361115,-0.0259814244005656,0.186885179194515,0.156671854813278,-0.0691142511266416,-0.155532497126174,0.964985096794539
8.55,2,0.0503555406353954,0.0552283293150629,-0.0565813165684988,0.15729239783929,0.0346079897457808,-0.164484593239133,0.0295724356822413,-0.175471256650492,0.0305083366395052,-0.162246569210893,0.604073203731396,-0.110497349976094,0.226162500890123,0.17591886145614,-0.0527563300475071,-0.165552741070793,0.904232917264321
8.58,2,0.075574002299061,0.0721966205837174,-0.033051545762505,0.162531408632669,0.00150557980081586,-0.170944344411552,0.0136214280627867,-0.222469761243528,-0.0100202439446191,-0.158452101199377,0.615843175552639,-0.120558285266681,0.26253039134902,0.187047944578387,-0.0246691284930977,-0.179957477543463,0.802056947538682
8.61,2,0.119815668202765,0.139113539028087,-0.0141300698873867,0.149723807489242,-0.0662353383994059,-0.180262662638223,-0.000295012258267973,-0.244768618833989,0.0171615751620024,-0.146509191157771,0.736462497838272,-0.102206488235115,0.303201391644032,0.183487451806187,-0.00413017161575162,-0.191167943357646,0.650685140537736
8.64,2,0.193344930366934,0.24090294096703,0.00163782667521185,0.109795424258146,-0.161971902625609,-0.169428591774244,-0.0287789544358654,-0.275816115807571,0.0248929308959217,-0.129195023448388,0.851690216783146,-0.242957853938414,0.350688192388684,0.157424644713686,0.0145878475295267,-0.178533280434584,0.521825820693584
8.67,2,0.291065197709077,0.328440198980682,0.00920641702525915,0.0455336161381878,-0.236365855891598,-0.140232551042207,-0.0495722322255114,-0.276345103305155,-0.00643940549943541,-0.14900153609831,1.0428479873043,-0.220201218705812,0.407839187800734,0.116845199947101,0.0174362417472864,-0.140741192866807,0.424237800225837
8.7,2,0.410697754854986,0.407086397900327,0.00264493748791976,-0.0339162368643249,-0.280068361461226,-0.0887071342102318,-0.0258898688721376,-0.223649810276599,0.00723288674581133,-0.0920031332336395,1.10416984567807,-0.23607084363333,0.47295551418602,0.0623493148594623,0.00332651753288369,-0.0798872849716687,0.274544511246071
8.73,2,0.538000630715862,0.4356008585874,-0.00879950356557919,-0.116224656921089,-0.276080609556363,-0.0383007293923765,0.0183009328491063,-0.16879787591174,0.00462864060385957,-0.120680359304585,1.02559485661387,-0.259346293527024,0.538010803552355,0.000142419710887987,-0.00944039226457513,-0.0239773756116418,0.098127180801823
8.76,2,0.660573137607959,0.421501307209489,-0.021159499903358,-0.192500584938098,-0.235501164789778,0.0523290709148432,0.0203761914934741,-0.12859482609536,-0.00851466414380322,-0.0862351349426761,0.71980956450087,-0.23571479435611,0.590797652109338,-0.0695720287687816,-0.0270902635781935,0.109683523056734,0.022166610716066
8.79,2,0.75543483789585,0.329416791283914,-0.0308949044262012,-0.196590065207882,0.0862961719616281,0.097964415417951,-0.00969471317687511,-0.0748415580716371,0.00194301176997182,-0.229661956643371,0.286436557105218,-0.159031952879421,0.620960112308115,-0.134210231838944,-0.0333363851842809,0.118910285754977,0.00585955381939146
8.82,2,0.811782179225033,0.200883002207506,-0.0250455234433017,-0.119825841039257,0.30919319233782,0.0448418632567319,-0.0615354879401023,-0.0387890255439924,-0.0123803420107629,-0.218746503087456,-0.281146682129378,-0.254534541866309,0.619830927457503,-0.191717276528214,-0.0251777703176977,0.0415763827428002,0.00247199926755577
8.85,2,0.8314055808181,0.076448866237373,-0.0483413190099796,-0.0209763888465021,0.343160293384604,-0.00876898505610319,-0.0490025533819595,-0.0614134139021984,-0.00920641702525915,-0.286202581865902,-0.792779320657979,-0.30822677287108,0.586291085543382,-0.244870347198909,-0.0714133121738334,-0.0391755933306884,0.00174972787662384
8.88,2,0.77802870774458,-0.176234219387392,-0.10778120263273,0.0415153457238482,0.168889431440168,-0.0483718375194555,-0.236345510218614,0.0815352844833725,-0.0147811314228746,-0.379579048025961,-1.73647267067476,-0.383363343200985,0.43219295836258,-0.345601774142684,-0.114556311736401,-0.0673645232500178,0.00150557980081586
8.91,2,0.65553758354442,-0.410290841395306,-0.0513321329386273,0.043366801965392,-0.0223700674459059,-0.0281278929003774,-0.118584754987233,-0.136488947213151,-0.0147404400769066,-0.330759605700858,-2.55309712006999,-0.679820144250821,0.276141646575315,-0.379192480239265,-0.0530920336517431,-0.0142521439252907,0.00154627114678386
8.94,2,0.50160222174749,-0.520605080314544,-0.0157577237261066,0.0254727825759657,-0.0561031932533748,0.00293994974618773,-0.0475783562730796,-0.274839523504339,-0.0271919919431135,-0.435641549933368,-2.90232042400382,-0.785871964679912,0.112470880255542,-0.388907539089124,-0.00639871415346741,0.00577817112745547,0.00167851802117985
8.97,2,0.338704591001109,-0.547827590767133,-0.00301115960163172,0.0147099215674306,-0.0279040904975534,0.00451673940244758,0.0851975056204922,-0.43809320352794,-0.0596636860255745,-0.308654032003744,-2.8589943133844,-0.8745078890347,-0.0660013631600899,-0.404594052959787,0.0256864121422976,0.00274666585283975,0.00167851802117985
9,2,0.173304442477696,-0.551510157577237,0.0450860113325399,0.0121768852809229,-0.00227871537420779,-0.000366222113711966,0.0398266548661763,-0.383159886471145,-0.075736767682933,-0.212012085329753,-2.52936389253416,-0.731335388246305,-0.225602994883063,-0.398805708995839,0.0578834396394747,-0.00258390046896776,0.00167851802117985
9.03,2,0.054109317300943,-0.404217658009583,0.0519526759646392,0.0120548112430189,0.000152592547379986,-0.00289925840021973,0.108839177627898,-0.32558163192643,-0.0733766696167893,-0.032074953459273,-1.76606545202999,-0.34359772535376,-0.353495895260475,-0.407564521215451,0.0577715384380627,-0.00366222113711966,0.00167851802117985
9.06,2,-0.0131229590746788,-0.229468672750023,0.0416984567807042,0.0119225643686229,0.000152592547379986,-0.00292977690969573,0.0824711854406364,-0.241269163080742,-0.0563269956561988,-0.00835189875993123,-1.20320240892768,0.0100711081270791,-0.441857153029979,-0.428500218715985,0.0420850245674001,-0.00366222113711966,0.00167851802117985
9.09,2,-0.0426852219204281,-0.100497451704459,0.0280058188624734,0.0118106631672109,0.000152592547379986,-0.00333669036937569,0.0659911903235979,-0.200862656534522,-0.0531530706706951,0.076357310708945,-0.762443922238838,0.0151880448825546,-0.498489333780938,-0.455590482294178,0.0255745109408856,-0.00366222113711966,0.00167851802117985
9.12,2,-0.0513829971210873,-0.0264798933886736,0.0175990071311584,0.0116377249468469,0.000152592547379986,-0.00339772738832769,0.0575680817082227,-0.184097821995707,-0.0475376649271116,0.211147394227933,-0.481988992990916,-0.345154169337036,-0.534602903327535,-0.482996103803624,0.0141911069063387,-0.00366222113711966,0.00167851802117985
9.15,2,-0.0528478855759351,-0.00164799951170385,0.011281675669627,0.0114749595629749,0.000152592547379986,-0.00348928291675568,0.043733024079104,-0.171768344167404,-0.0393993957335124,0.339976195562609,-0.328664001383506,-0.89064200771101,-0.558041118605101,-0.504969430626341,0.00950142928352713,-0.00366222113711966,0.00167851802117985
9.18,2,-0.054129662973927,0.000132246874395988,0.00962350332143111,0.011312194179103,0.000152592547379986,-0.00359101128167567,0.0453606779178238,-0.158340199997965,-0.0416781111077202,0.444176559750155,-0.231035289569791,-1.35819574571978,-0.533636483860795,-0.479293191320536,0.00930814539017914,-0.00366222113711966,0.00167851802117985
9.21,2,-0.0575070446892707,-0.00779747917111728,0.00994394767092909,0.011164688049969,0.000152592547379986,-0.00355540635395367,0.0568559831537828,-0.15286721396527,-0.0440789005198319,0.52208522802413,-0.136483860794905,-1.57775098930835,-0.43448184657328,-0.376740826644693,0.010991749829605,-0.00366222113711966,0.00167851802117985
9.24,2,-0.0581581062247587,-0.000808740501113926,0.010452589495529,0.011073132521541,0.000152592547379986,-0.00371817173782566,0.0707317321288695,-0.153131707714062,-0.043061616870632,0.570416374197617,-0.0239773756116418,-1.55246640420749,-0.363790805790379,-0.305393637908058,0.0101626636555071,-0.00366222113711966,0.00167851802117985
9.27,2,-0.0587176122318186,0.000152592547379986,0.0097964415417951,0.010890021464685,0.000152592547379986,-0.00363678904588967,0.0770592364268929,-0.153253781751966,-0.0373851741080966,0.622709840184739,0.0857315795363221,-1.34554582354198,-0.359594510737429,-0.30064800968454,0.00991851557969909,-0.00349436933500168,0.00167851802117985
9.3,2,-0.0591855627104505,0.000152592547379986,0.0100812809635711,0.010661132643615,0.000152592547379986,-0.00339264097008169,0.0691244239631336,-0.165868099002045,-0.00157678965625985,0.586784468113244,0.184469130527665,-1.07724743390199,-0.35082043926308,-0.291416160568051,0.0102694784386731,-0.00320444349497971,0.00167851802117985
9.33,2,-0.0595416119876705,0.000152592547379986,0.010401725313069,0.00993377483443709,-0.00116987619657989,-0.00332651753288369,-0.168411308125045,-0.172175257627084,0.314289783420311,0.28741314940845,0.0228024129968159,-1.27307453637298,-0.344177577033804,-0.284396903388572,0.010376293221839,-0.00320444349497971,0.00291960407320373
9.36,2,-0.0602181056143885,0.000152592547379986,0.0102949105299031,0.00182093773206783,-0.032949817397585,0.00310780154830571,0.0143945636361787,-0.157933286538285,0.0635293638925341,0.333333333333333,0.043885616626484,-0.862804040650655,-0.326512446465448,-0.266106143375958,0.010376293221839,0.00607318338572344,0.0818302967416405
9.39,2,-0.0604317351807204,0.000152592547379986,0.010345774712363,-0.0204117964211961,-0.0846888637958922,0.0127669097974588,-0.0121768852809229,-0.194677571947386,0.0137841934466587,0.0465915911333557,0.125125888851588,0.495274717449466,-0.312814722128971,-0.252164270963673,0.010376293221839,0.0266477451907915,0.24436170537431
9.42,2,-0.0605792413098544,0.000152592547379986,0.0149337239702546,-0.0533972187465031,-0.107414980519018,0.0472121341593677,-0.0595823033336385,-0.141819513534959,0.0152694275744906,0.130237739188818,0.0936816512548194,0.462558875291197,-0.303989786472162,-0.243202002014222,0.0238044373912778,0.0621407717113763,0.369080680766218
9.45,2,-0.0573747978148747,0.0116784162928149,0.0347249773654388,-0.0730358795943073,-0.043804233934548,0.0570645263018687,-0.0378938159326965,-0.196284880113122,-0.0273547573269855,0.167663604642883,0.115003916542049,0.0693787448754336,-0.302433342488886,-0.244819483016449,0.0307982624795272,0.054638304798527,0.513540045370851
9.48,2,-0.0578020569475387,-0.000885036774803919,0.0300302133243812,-0.0836359752189703,-0.0334838913134149,0.0462609739473657,-0.0521357870214952,-0.148452202927742,0.0124820703756829,0.148197882015442,0.0789310383414207,0.00471510971404157,-0.296309294920703,-0.238288521988586,0.0340077923927529,0.0466933194982757,0.662643309834081
9.51,2,-0.0586769208858506,-0.00129703665272988,0.0378276924954985,-0.0988240201015249,-0.0487380596331675,0.0611489201534064,-0.0574053163243507,-0.155064546647542,0.00479140598773156,0.137806329538865,0.10691651153091,0.00307728303882972,-0.290271716462701,-0.231376079592273,0.0368765322834966,0.0619373149815363,0.787530137028108
9.54,2,-0.0586311431216366,0.000137333292641987,0.0360067547634307,-0.113289793593148,-0.0451470483514918,0.0644093142490921,-0.0450351471500799,-0.165196691793573,0.00180059205908383,0.125456506037578,0.101092562639241,-0.0496180099897254,-0.281904558448032,-0.223034353668833,0.0357524338511307,0.06521296833196,0.877529221472823
9.57,2,-0.0567746004618468,0.00690226955982136,0.0332397432376069,-0.125456506037578,-0.0374055197810806,0.0640125736259041,-0.0448316904202399,-0.158991261533453,0.00257372763247576,0.103910438347524,0.0894853562018698,-0.0797804701885027,-0.275424461602629,-0.218415885901466,0.0313018178858811,0.065446943571276,0.938973153884498
9.6,2,-0.0569882300281788,0.000951160212001912,0.0336771752067629,-0.133889787489446,-0.0229651783806879,0.0619576606545203,-0.0424309010081281,-0.162043112481053,0.00491348002563555,0.0770948413546149,0.0914181951353496,-0.054088971627959,-0.267820266324859,-0.210567542547889,0.0346690267647328,0.0618254137801243,0.976200649026968
9.63,2,-0.0558183538315989,0.00402335683258563,0.032659891557563,-0.140079958494827,-0.0178482416252124,0.0595721304971465,-0.0407015188044883,-0.158421582689901,0.00312306080304371,0.0625731172622862,0.0956958728802352,-0.0499842321034374,-0.261141799167862,-0.205109815769931,0.032792138431959,0.0601316365042065,0.992650125634531
9.66,2,-0.0529241818496251,0.0101880957467371,0.0286975717439294,-0.142740155237485,-0.00506098615476953,0.0555284279915769,-0.0424105553351441,-0.156081830296742,0.0021464684998118,0.0422223578600421,0.100975575019583,-0.0596331675160985,-0.251441999572741,-0.198304188156784,0.0274361400189215,0.0559760327972249,1.00096133304849
9.69,2,-0.0490483311461735,0.0129500208543148,0.0247250790938037,-0.142862229275389,0.000152592547379986,0.0517746513260292,-0.0408032471694082,-0.156549780775374,0.00145471561835587,0.0286670532344534,0.0996429334391308,-0.0750806197291991,-0.244112470880256,-0.19485051016775,0.0239570299386578,0.0518814661091952,1.00863165176346
9.72,2,-0.0449181595304219,0.0149693288979766,0.021408734397412,-0.142963957640309,0.000152592547379986,0.0518458611814732,-0.0365103101697846,-0.15724153365683,0.00243130792158778,0.0193487350077822,0.0822829879655344,-0.0658029928484959,-0.238593707083346,-0.19347717724133,0.0198472039958902,0.0518814661091952,1.00497960346283
9.75,2,-0.0408439385153762,0.0122430087181209,0.0188553524379203,-0.142821537929421,0.000152592547379986,0.0519170710369172,-0.0365306558427686,-0.156773583178198,0.00631733146153142,0.010717083244321,0.0450453199865719,-0.0464491714224677,-0.234687337870418,-0.193583992024496,0.0188807845291503,0.0518814661091952,0.997624642679118
9.78,2,-0.0376191493474125,0.010910367137669,0.0180618711915443,-0.142597735526597,0.000152592547379986,0.0516067995239112,-0.0358999399802647,-0.157790866827397,0.00159713532924385,-0.00451165298420159,0.010706910407829,-0.0139418724122847,-0.232164474420403,-0.194357127597888,0.0180466119368063,0.0516525772881252,0.998713136183762
9.81,2,-0.0349691254412468,0.00848414563432722,0.0171208838160344,-0.142328155359559,0.000152592547379986,0.0514135156305633,-0.0381583096814885,-0.157567064424573,0.00147506129133986,-0.0188960437838883,-0.0122074037903989,-0.0190384634947762,-0.230908129113641,-0.195735546942554,0.0170700196335744,0.0514236884670553,0.997146519363994
9.84,2,-0.032598854538611,0.00770592364268929,0.0160578224026205,-0.142129785047965,0.000152592547379986,0.0512761823379213,-0.0422681356242561,-0.157017731254006,0.00839259010589923,-0.0307270526240832,-0.0305134230577512,-0.0455488753929258,-0.231340474664551,-0.198507644886624,0.0156102175969726,0.0514236884670553,0.981638030131942
9.87,2,-0.0303811761833552,0.0076499730419833,0.0167648345388145,-0.141921241899879,0.000152592547379986,0.0512456638284453,-0.0392162846766564,-0.156814274524166,0.0054424675232195,-0.0314188055055391,-0.0376344086021505,-0.0455692210659098,-0.232662943408511,-0.202113915423037,0.0151524399548326,0.0514236884670553,0.939751375876136
9.9,2,-0.0294605344808293,0.00205999938962981,0.0151422671183406,-0.141692353078809,0.000152592547379986,0.0513677378663493,-0.0413525803399762,-0.157322916348766,0.00727357809177933,-0.0202388582008321,-0.0480666524246956,-0.0660980051067639,-0.232001709036531,-0.202322458571123,0.0166580197556485,0.0514236884670553,0.878032776879177
9.93,2,-0.0269325846125675,0.00803654082867926,0.0146387117119867,-0.141137933489995,0.00147506129133986,0.0516424044516332,-0.0497146519363994,-0.158319854324981,0.0137231564277067,-0.010732342499059,-0.0453759371725618,-0.11040070802942,-0.233609017202267,-0.206467889441613,0.0127007863602608,0.0513626514481033,0.80123294778283
9.96,2,-0.0271716462701295,0.000920641702525915,0.0143436994537187,-0.138859218115787,0.00662251655629139,0.0469985045930357,-0.0462965788750877,-0.153599658192694,0.00344859157078768,0.00196335744295582,-0.0475427513453576,-0.184575945310831,-0.23759676910713,-0.210206406852423,0.0159001434369945,0.0460219122898038,0.713390504674418
9.99,2,-0.0266426587725456,0.00207525864436781,0.0164596494440545,-0.138533687348043,0.00148014770958586,0.0485956399222795,-0.0462965788750877,-0.152846868292286,0.00383515935748365,0.0183670562863043,-0.0349386069317708,-0.271726635537787,-0.243227434105452,-0.216396577857804,0.0162155013682465,0.0503402813806574,0.62528865423546
10.02,2,-0.0245674001281777,0.00657673879207739,0.0125125888851588,-0.135125787123224,0.0137333292641987,0.0453708507543158,-0.0553097120069989,-0.152684102908414,0.010386466058331,0.0379446801151565,-0.0366578162989186,-0.385423342590615,-0.246014791304259,-0.221228675191504,0.011083305358033,0.0415306049785862,0.536901964374727
10.05,2,-0.0244198939990438,0.000534073915829951,0.0136926379182307,-0.133340454318878,0.00505589973652353,0.0443128757591479,-0.0487787509791355,-0.154677978860846,0.000966419466739911,0.0592771182388786,-0.0568102053895688,-0.551840774763227,-0.251523382264677,-0.226849167353333,0.0146031067842647,0.0465712454603717,0.444619078137557
10.08,2,-0.0243385113071078,0.000152592547379986,0.0147658721681366,-0.12841680145675,0.0190232042400382,0.0403302102725303,-0.0507522812585833,-0.158950570187485,0.00853500981678721,0.0920590838343455,-0.0464644306772057,-0.721661020742414,-0.256645405438398,-0.232093264564959,0.0148014770958586,0.0368561866105126,0.362488682719403
10.11,2,-0.0242622150334178,0.000152592547379986,0.0147760450046286,-0.118986582028667,0.0351217179886268,0.0316273486536251,-0.0479445783867916,-0.154637287514878,-0.00151575263730786,0.126885789564704,-0.0279142633340454,-0.866995249285358,-0.259366639200008,-0.234941658782718,0.0148014770958586,0.0254727825759657,0.291339864294361
10.14,2,-0.0240994496495458,0.000152592547379986,0.0146997487309386,-0.107618437248858,0.0380616677348145,0.0234433016958118,-0.0525020091352072,-0.14910326446323,-0.00086469110181992,0.137460453098137,-0.0207932777896461,-1.00033570360424,-0.264351329081088,-0.240028077028718,0.0148014770958586,0.0182348094119083,0.227902055930255
10.17,2,-0.0238756472467218,0.000152592547379986,0.0148523412783186,-0.098391674550615,0.0281991027558214,0.0198166854864142,-0.0574256619973347,-0.149795017344686,0.00076296273689993,0.15266375723543,-0.0243537705618458,-1.18007955158137,-0.272001302123071,-0.247912025310017,0.0147607857498906,0.0200303150527462,0.167465234331289
10.2,2,-0.0235297708059938,0.000152592547379986,0.0145166376740827,-0.0909655039114556,0.0240180669576098,0.0206508580787581,-0.053763440860215,-0.155695262510046,0.000559506007059949,0.171117282631916,-0.0245877458011617,-1.38034201076286,-0.278227078056174,-0.254442986337881,0.0141911069063387,0.0201218705811742,0.115359965819269
10.23,2,-0.0207322407706941,0.00799584948271126,0.010854416536963,-0.0851873327840002,0.0171717479984944,0.0193080436618142,-0.0496943062634154,-0.157119459618926,0.0172429578539384,0.193253374838506,-0.0300200404878892,-1.58611814732302,-0.279366435743278,-0.25846125675222,0.00902330596840317,0.0191351054414502,0.0602842290515865
10.26,2,-0.0205491297138381,0.00100711081270791,0.0102033550014751,-0.0778018534908088,0.0282092755923134,0.0188299203466903,-0.0489618620359915,-0.158380891343933,-0.00261441897844376,0.235073905657114,-0.0285042878505814,-1.86581011383404,-0.279956460259814,-0.259163182470168,0.0118513545131789,0.0146488845484787,0.0191147597684662
