time,Mode,Knee_Angle,Knee_Velocity,Knee_Current,Ankle_Angle,Ankle_Velocity,Ankle_Current,Acc_X,Acc_Y,Acc_Z,Gyro_X,Gyro_Z,Gyro_Y,Shank_Angle,Thigh_Angle,Knee_Ref_Torque,Ankle_Ref_Torque,Filtered_Vertical_Load
0,1,0.0704112877793715,0.000152592547379986,-0.0426140120649841,0.0314594968515071,-0.00585446740114546,-0.0271614734336375,-0.00267545599739575,-0.160049236528621,0.000132246874395988,0.00183111056855983,-0.0536617124952951,-0.00260424614195176,-0.0419171727652821,-0.112267423525702,-0.0424665059358501,-0.0260017700735496,0.714860479547512
0.03,1,0.0686920784122237,-0.00576799829096347,-0.0400148523412783,0.0282652261930194,-0.0097913551235491,-0.0234890794600258,0.000356049277219967,-0.162104149500005,-0.00208543148085981,-0.0282804854477574,-0.0453555914995778,-0.0161036001668345,-0.0399792474135563,-0.108564511042614,-0.0380108035523545,-0.0173141677093824,0.689774264758243
0.06,1,0.0687276833399457,-0.000549333170567949,-0.0411287779371522,0.0261543626209296,-0.00725323241879533,-0.0208950061545661,0.00243130792158778,-0.160944446139917,0.00283822138126774,-0.0467238380077517,-0.0469883317565437,-0.0242215236874498,-0.0370799890133366,-0.105705943988362,-0.0421358887498601,-0.0188502660196743,0.655527410707928
0.09,1,0.0677002268542538,-0.0022176783552558,-0.0378836430962045,0.0237840917182938,-0.00734478794722332,-0.0184535253964863,-0.00200404878892382,-0.161636199021373,0.00633767713451542,-0.0339162368643249,-0.0554724773908709,-0.0261848811304056,-0.0340688294117049,-0.101667327901039,-0.0391349019847204,-0.0165918963184505,0.607979572944324
0.12,1,0.0660115359965819,-0.00517797377442752,-0.0403047781813003,0.0198268583229062,-0.0142317982523067,-0.0149642424797306,-0.000172938220363984,-0.160985137485885,0.00511693675547553,-0.0227668080690939,-0.0625934629352702,-0.0210679443749301,-0.0340993479211809,-0.100049846898811,-0.0379650257881405,-0.00881984923856319,0.535325174718467
0.15,1,0.0644856105227821,-0.00320444349497971,-0.0347198909471928,0.0165105136265145,-0.0043438011820836,-0.00298064109215573,-0.00208543148085981,-0.160252693258461,0.00426241849014761,-0.0208950061545661,-0.0456963815220598,-0.0387890255439924,-0.033051545762505,-0.097445600756859,-0.0364289274778486,-0.00840276294239123,0.455509099602242
0.18,1,0.0624306975513983,-0.00627664011556342,-0.0369273964659566,0.0156153040152186,-0.00526952930285552,-0.00491348002563555,-0.00277718436231574,-0.158909878841517,0.00450656656595559,-0.0243537705618458,-0.0521866512039552,-0.0797448652607807,-0.0337534714804529,-0.0960824406669312,-0.0349131748405408,-0.0122175766268909,0.375062308623513
0.21,1,0.0596942045350505,-0.00810775068412325,-0.032878607542141,0.0142216254158147,-0.000244148075807978,-0.00358083844518367,-0.00741599780266732,-0.160618915372173,0.00637836848048341,-0.0194809818821782,-0.0487075411236915,-0.113091423281554,-0.0349436933500168,-0.0945768608661153,-0.032115644805241,-0.0118818730226549,0.303272601499476
0.24,1,0.0574968718527787,-0.00594093651132745,-0.0314849289427371,0.0135807367168188,0.000152592547379986,-0.00768049155145929,-0.00676493626717938,-0.159886471144749,0.00735496078371532,-0.0141097242144027,-0.054038107445499,-0.172846664835556,-0.0389721366008484,-0.0963876257616911,-0.0319121880754011,-0.0122074037903989,0.231025116733299
0.27,1,0.054261909848323,-0.00997955259865108,-0.0289620654927213,0.011057873266803,-0.00753807184057131,-0.00784325693533128,-0.0118513545131789,-0.158096051922157,0.00422172714417961,-0.00497451704458754,-0.0720236823633534,-0.319915362000387,-0.043590604368216,-0.097771131524603,-0.0276599424217455,-0.00477106031474756,0.166437777845597
0.3,1,0.0505996887112033,-0.011302021342611,-0.0258593503626616,0.0097862687053031,1.01728364919991e-05,-0.0032247891679637,-0.0257677948342336,-0.163182470168157,0.00723288674581133,0.0252591530096337,-0.102196315398623,-0.611865596484268,-0.0576494644001587,-0.108198288928902,-0.0244046347443058,-0.00827051606799524,0.106784264656514
0.33,1,0.0471510971404157,-0.00963367615792311,-0.0233059684031699,0.00907417015086317,0.000152592547379986,-0.0053916033407595,-0.0239773756116418,-0.161961729789117,-0.00269580167037975,0.0265816217535936,-0.103620512507502,-0.816593930885749,-0.0739260027873572,-0.121016062908821,-0.0233263140761539,-0.00790429395428327,0.0554826502273629
0.36,1,0.0446078880174159,-0.00825017039501124,-0.0234992522965178,0.00841293577888323,0.000152592547379986,-0.00638854131697541,-0.0163274025696585,-0.177465132602924,0.0150049338256986,-0.0229499191259499,-0.0934985401979634,-0.879228085166987,-0.0822473830378124,-0.126773888363292,-0.0227261167231259,-0.00735496078371532,0.0168767357402264
0.39,1,0.043926307972452,-0.00120039470605589,-0.0238553015737378,0.00779239275287128,0.000152592547379986,-0.00665303506576739,-0.0132755516220588,-0.155491805780206,0.0263985106967376,-0.0631326232693462,-0.0708639790032655,-0.824254076764224,-0.0857977029735201,-0.12966297392702,-0.0253201900285857,-0.00672424492121138,0.00475071464176356
0.42,1,0.0419629505294961,-0.00569678843551948,-0.0256457207963296,0.00723288674581133,0.000152592547379986,-0.00665303506576739,-0.0301624601987772,-0.156509089429406,0.0198878953418582,-0.032970163070569,-0.0899787387717317,-0.849991353088982,-0.097415082247383,-0.139266131575467,-0.0229499191259499,-0.00622577593310343,0.00225836970122379
0.45,1,0.0407422101504562,-0.00266528316090375,-0.0209662160100101,0.00660217088330739,0.000152592547379986,-0.00628681295205542,-0.0379345072786645,-0.154718670206814,-0.00171920936714784,-0.0154728843043306,-0.119296853541673,-0.845128737245806,-0.116133101392661,-0.156793928851182,-0.0222988575904619,-0.00564592425305948,0.00173955504013184
0.48,1,0.0405794447665843,8.13826919359925e-05,-0.0233263140761539,0.00610370189519944,0.000152592547379986,-0.00576799829096347,-0.0476190476190476,-0.153904843287454,-0.0195827102470982,-0.0086977752006592,-0.171208838160344,-0.721976378673666,-0.141982278918831,-0.182500686666463,-0.0242622150334178,-0.00518814661091952,0.00167851802117985
0.51,1,0.0383515935748365,-0.0065614795373394,-0.0225633513392539,0.00569678843551948,0.000152592547379986,-0.0054628131962035,-0.0520137129835912,-0.155329040396334,-0.0236111534979298,-0.0257677948342336,-0.224127933591723,-0.519852290414136,-0.171666615802484,-0.209926653848893,-0.0202134261096021,-0.00485244300668355,0.00167851802117985
0.54,1,0.0363475447859127,-0.00495417137160354,-0.0198878953418582,0.00524918362987152,0.000152592547379986,-0.00509659108249153,-0.0441195918657999,-0.15561387981811,-0.0268257698294015,0.00822982472202724,-0.244371878210802,-0.372305469934182,-0.198014262316762,-0.23429059724723,-0.0197047842850022,-0.00428276416313161,0.00167851802117985
0.57,1,0.0342315947955768,-0.00527970213934751,-0.0172836491999064,0.00490330718914355,0.000152592547379986,-0.00478123315123956,-0.0333363851842809,-0.158665730765709,-0.0190944140954822,0.032542903937905,-0.253171381776381,-0.336853134759565,-0.21332438123722,-0.247454247667877,-0.0167750073753065,-0.00402844325083163,0.00167851802117985
0.6,1,0.0340586565752129,-0.000101728364919991,-0.0189418215481023,0.00447604805647959,0.000152592547379986,-0.0043132826726076,-0.021739351583402,-0.158625039419741,-0.0125837987406028,0.0561133660898668,-0.275826288644063,-0.373902605263426,-0.219438255968912,-0.253425702688681,-0.0201116977446821,-0.00366222113711966,0.00167851802117985
0.63,1,0.0339162368643249,0.000152592547379986,-0.0200811792352062,0.00417086296171962,0.000152592547379986,-0.00400809757784763,0.0412508519750562,-0.172907701854508,0.00702943001597135,0.0662862025818659,-0.248034099347921,-0.449252805159663,-0.215328430026144,-0.249183629871517,-0.0202948088015381,-0.0032654805139317,0.00167851802117985
0.66,1,0.0339365825373089,0.000152592547379986,-0.0201625619271421,0.00342824589780368,0.000152592547379986,-0.00368256681010366,0.054597613452559,-0.17713960183518,0.0246487828201137,0.076326792199469,-0.210099592069257,-0.528448337249875,-0.224921414838099,-0.25876644184698,-0.0202948088015381,-0.00277718436231574,0.00167851802117985
0.69,1,0.032481866918953,-0.00445570238349559,-0.0204372285124261,0.00250251777703177,0.000152592547379986,-0.00332651753288369,0.0883714306059959,-0.17103589993998,0.0202948088015381,0.075746940519425,-0.0951668853826513,-0.540442111473942,-0.234738202052878,-0.267189550462355,-0.0180567847732983,-0.00192266609698782,0.00167851802117985
0.72,1,0.0309762871181372,-0.00379446801151565,-0.0154830571408226,0.00165817234819585,0.000152592547379986,-0.00145471561835587,0.0608233893856624,-0.163752149011709,0.0315256202887051,0.0399589017405723,0.011271502833135,-0.540452284310434,-0.23474837488937,-0.265643279315572,-0.0156763410341706,-0.0010376293221839,0.00167851802117985
0.75,1,0.0302133243812372,-0.00150557980081586,-0.0175684886216824,0.0010579749951679,0.000152592547379986,0.00065106153548794,-0.00774152857041129,-0.151788893297118,0.0187892290007223,0.021505376344086,-0.00816878770307525,-0.397391684723451,-0.208115888953317,-0.238237657806126,-0.0179957477543463,-0.000488296151615955,0.00167851802117985
0.78,1,0.0247098198390657,-0.0153202917569506,-0.0130517492192348,0.000712098554439934,0.000152592547379986,0.000681580044963937,-0.011159601631723,-0.15581733654795,0.0177719453515224,0.0141707612333547,-0.0265104118981496,-0.269458093000071,-0.192581967630034,-0.217220577613656,-0.00804671366517126,-0.000305185094759972,0.00167851802117985
0.81,1,0.0165918963184505,-0.0229600919624419,-0.000610370189519944,0.000467950478631957,0.000152592547379986,0.00065106153548794,-0.0157170323801386,-0.157078768272958,0.00926745404421115,0.00411999877925962,0.00888088625751518,-0.205023346659749,-0.174525182856736,-0.191045869319742,0.00172938220363984,9.15555284279916e-05,0.00167851802117985
0.84,1,0.0146387117119867,-0.00390636921292764,-0.0021464684998118,0.000223802402823979,0.000152592547379986,0.000640888698995941,-0.0234890794600258,-0.156671854813278,0.00320444349497971,0.000559506007059949,0.0391755933306884,-0.176234219387392,-0.165135654774621,-0.179662465285195,-0.0054628131962035,0.000152592547379986,0.00167851802117985
0.87,1,0.0138554033021027,5.08641824599953e-05,-0.00669372641173538,0.000152592547379986,0.000152592547379986,0.000661234371979939,-0.0193385621712902,-0.154840744244718,0.0102847376934111,0.00155644398327586,0.0613218583737704,-0.177180293181148,-0.156041138950774,-0.169794813887956,-0.00799584948271126,0.000152592547379986,0.00167851802117985
0.9,1,0.0138960946480707,0.000152592547379986,-0.00797550380972727,0.000152592547379986,0.000152592547379986,0.000661234371979939,-0.00782291126234728,-0.155939410585854,0.0133365886410108,0.00086469110181992,0.0560726747438988,-0.180791650135807,-0.141972106082339,-0.15576647236549,-0.00808740501113926,0.000152592547379986,0.00167851802117985
0.93,1,0.0144657734916227,0.000152592547379986,-0.00802636799218726,-5.08641824599953e-05,0.000152592547379986,0.000630715862503942,0.000966419466739911,-0.162002421135085,0.0101219723095391,-0.0102440463474431,0.0445570238349559,-0.130568356374808,-0.120487075411237,-0.1349019847204,-0.00823999755851924,0.000152592547379986,0.00167851802117985
0.96,1,0.0151168350271106,0.000152592547379986,-0.00839259010589923,-0.000223802402823979,0.000152592547379986,0.000620543026011943,-0.0043234555090996,-0.163223161514125,0.011342712688579,-0.011098564612771,0.0463372702210557,-0.0314137190872931,-0.102186142562131,-0.117221594897305,-0.00854518265327921,0.000152592547379986,0.00167851802117985
0.99,1,0.0155186620685446,0.000152592547379986,-0.00878933072908719,-0.000284839421775974,0.000152592547379986,0.00065106153548794,-0.010854416536963,-0.165888444675029,0.0011291848506119,0.00748720765811131,0.0346588539282408,0.0195369324828842,-0.0926491083508815,-0.108096560563982,-0.00897244178594317,0.000152592547379986,0.00887579983926918
1.02,1,0.0159560940377005,0.000152592547379986,-0.00905382447787917,-0.000305185094759972,0.000152592547379986,0.000620543026011943,-0.010956144901883,-0.163223161514125,0.00503555406353954,0.0087384665466272,0.0282092755923134,0.0160425631478825,-0.0859452091026541,-0.101819920448419,-0.00906399731437117,0.000152592547379986,0.0268664611753695
1.05,1,0.0163579210791345,0.000152592547379986,-0.00930814539017914,-0.000284839421775974,0.000152592547379986,0.000610370189519944,-0.00936918240913114,-0.160863063447981,0.00888088625751518,0.0187027598905403,0.0151727856278166,-0.00501012197230954,-0.0807774081647186,-0.0970641193884091,-0.00961333048493912,0.000152592547379986,0.0332702617470829
1.08,1,0.0166275012461725,0.000152592547379986,-0.00952686137475712,-0.000239061657561978,0.000152592547379986,0.000610370189519944,-0.0101016266365551,-0.162572099978637,0.00814844203009125,0.0278990040793074,0.00688701030508337,-0.00033061718598997,-0.075986002176987,-0.0925524664042075,-0.00961333048493912,0.000152592547379986,0.0346944588559628
1.11,1,0.0168513036489964,0.000152592547379986,-0.00954720704774112,-0.000147506129133986,0.000152592547379986,0.000661234371979939,-0.0122786136458429,-0.161636199021373,0.00963367615792311,0.0454980112104658,0.00370291248308766,-0.0271207820876695,-0.0737632374034852,-0.0905280719422997,-0.00972014526810511,0.000152592547379986,0.0206661173334961
1.14,1,0.0171768344167404,0.000152592547379986,-0.00994903408917508,0,0.000152592547379986,0.000620543026011943,-0.0130720948922188,-0.163813186030661,0.00633767713451542,0.0631173640146082,0.00159204891099785,-0.0516881822158472,-0.0728324228644673,-0.0899126153345337,-0.0100711081270791,0.000152592547379986,0.00603249203975545
1.17,1,0.0173395998006124,0.000152592547379986,-0.00995412050742108,0,0.000152592547379986,0.00065106153548794,-0.0181381674652343,-0.164362519201229,0.00196335744295582,0.0639617094434441,-0.00805688650166326,-0.117425051627145,-0.0747296568702251,-0.0920183924883775,-0.0100711081270791,0.000152592547379986,0.00251777703176977
1.2,1,0.0176447848953724,0.000152592547379986,-0.0100202439446191,0,0.000152592547379986,0.000620543026011943,-0.0207017222612181,-0.163731803338725,-0.00584938098289946,0.0588854640339366,-0.0308236945707572,-0.212871690013326,-0.0798008158614867,-0.097343872391939,-0.0101779229102451,0.000152592547379986,0.00180059205908383
1.23,1,0.0180160934273303,0.000152592547379986,-0.010355947548855,0,0.000152592547379986,0.000620543026011943,-0.0313832005778171,-0.157282225002798,-0.0021261228268278,0.0623544012777083,-0.0737988423312072,-0.238491978718426,-0.0901516769920957,-0.108096560563982,-0.010528885769219,0.000152592547379986,0.00167851802117985
1.26,1,0.0182449822484003,0.000152592547379986,-0.010508540096235,0.000116987619657989,0.000152592547379986,0.000610370189519944,-0.0447503077283039,-0.153436892808822,-0.0065614795373394,0.0679850662760298,-0.123147272153895,-0.148335215308084,-0.114932706686605,-0.1331217383343,-0.010528885769219,0.000152592547379986,0.00167851802117985
1.29,1,0.0183111056855983,0.000152592547379986,-0.010549231442203,0.000152592547379986,0.000152592547379986,0.000630715862503942,-0.0462355418561358,-0.152846868292286,-0.00778221991637928,0.0665405234941659,-0.154143904945016,-0.0379395936969105,-0.142129785047965,-0.160364594459873,-0.010528885769219,0.000152592547379986,0.00167851802117985
1.32,1,0.0181890316476943,0.000152592547379986,-0.010493280841497,0.000152592547379986,0.000152592547379986,0.000610370189519944,-0.0428785058137761,-0.151015757723726,-0.010732342499059,0.0708690654215115,-0.187276833399457,0.0156356496882026,-0.166885382651245,-0.185003204443495,-0.010528885769219,0.000152592547379986,0.00167851802117985
1.35,1,0.0179041922259184,0.000152592547379986,-0.010452589495529,0.000259407330545976,0.000152592547379986,0.00065106153548794,-0.0367748039185766,-0.152643411562446,-0.010630614134139,0.0832799259417503,-0.219646799116998,0.0244758445997497,-0.186554562008525,-0.204372285124261,-0.010528885769219,0.000152592547379986,0.00167851802117985
1.38,1,0.0173955504013184,0.000152592547379986,-0.010452589495529,0.000305185094759972,0.000152592547379986,0.00065106153548794,-0.0228990549434899,-0.155451114434238,-0.00727357809177933,0.0901771090833257,-0.225460575172175,0.0141860204880927,-0.19706310210476,-0.214372183395896,-0.0101474044007691,0.000152592547379986,0.00167851802117985
1.41,1,0.0167648345388145,0.000152592547379986,-0.00997955259865108,0.000305185094759972,0.000152592547379986,0.00065106153548794,0.00676493626717938,-0.155939410585854,0.00363170262764367,0.0818811609241005,-0.182429476811019,-0.0202337717825861,-0.186239204077273,-0.202907396669413,-0.0098117007965331,0.000152592547379986,0.00167851802117985
1.44,1,0.0161697236040325,0.000152592547379986,-0.00963367615792311,0.000279753003529974,0.000152592547379986,0.000630715862503942,0.0442009745577359,-0.159235409609261,0.0261747082939136,0.0559353414512569,-0.0898617511520737,-0.100065106153549,-0.159825434125797,-0.175903602201402,-0.00947091077405113,0.000152592547379986,0.00167851802117985
1.47,1,0.0159103162734865,0.000152592547379986,-0.00918607135227515,8.6469110181992e-05,0.000152592547379986,0.000640888698995941,0.0531530706706951,-0.157709484135461,0.0692668436740216,-0.0599027476831365,0.0179397971536404,-0.196193324584694,-0.156870225124872,-0.17268898586993,-0.00900296029541917,0.000152592547379986,0.00167851802117985
1.5,1,0.0157933286538285,0.000152592547379986,-0.00911994791507716,-0.00021362956633198,0.000152592547379986,0.000620543026011943,-0.0122989593188269,-0.156875311543118,0.0145980203660187,-0.0172887356181524,-0.0121616260261849,-0.0309559414451532,-0.15406252225308,-0.169810073142694,-0.00900296029541917,0.000167851802117985,0.00175481429486984
1.53,1,0.0152287362285226,0.000152592547379986,-0.00909451582384716,-0.00182602415031383,-0.00712607196264534,0.00191757967874182,-0.0342112491225929,-0.182103946043275,-0.0183619698680583,-0.011027354757327,0.0381684825179805,0.206528926460565,-0.147165339111504,-0.162297433393353,-0.00880458998382519,0.00629189937030142,0.0311339660837631
1.56,1,0.0148167363505966,0.000152592547379986,-0.00856552832626321,-0.00313832005778171,-0.000361135695465967,0.00606809696747744,-0.0314442375967691,-0.164749086987925,-0.010956144901883,-0.0339467553738009,0.075940224412773,0.0916267382834356,-0.144886623737297,-0.159606718141219,-0.00854518265327921,0.00383007293923765,0.0984425387330749
1.59,1,0.0151168350271106,0.000152592547379986,-0.00842310861537523,-0.00364187546413566,-0.000162765383871985,0.00474562822351756,-0.0193995991902422,-0.161025828831853,-0.00129195023448388,-0.02188177129429,0.0357778659423607,-0.0418154444003622,-0.141783908607237,-0.156814274524166,-0.00859096041749321,0.0033112582781457,0.148833684296192
1.62,1,0.0156509089429406,0.000152592547379986,-0.00886054058453118,-0.00698365225175736,-0.0114647867264829,0.00616982533239743,-0.022003845332194,-0.158909878841517,0.0043031098361156,-0.032507299010183,0.0243893754895678,0.0065462202826014,-0.137155268003377,-0.152724794254382,-0.00900296029541917,0.0126143172500788,0.192724387340922
1.65,1,0.0159815261289305,0.000152592547379986,-0.00906399731437117,-0.010854416536963,-0.011322367015595,0.0116122928556169,-0.0211696727398501,-0.156793928851182,0.010773033845027,0.0197912533951842,0.0255490788496556,0.00394706055889564,-0.13462223171687,-0.150522375153864,-0.00900296029541917,0.0199031545965962,0.215974405143386
1.68,1,0.0162205877864925,0.000152592547379986,-0.00929288613544115,-0.0121412803532009,-5.08641824599953e-05,0.0141809340698467,-0.0151473535365866,-0.161249631234677,0.00194301176997182,0.0292062135685293,0.0363424583676667,0.0419527776930041,-0.126163518173772,-0.142317982523067,-0.00955229346598712,0.0115766879278949,0.229300820947905
1.71,1,0.0164240445163325,0.000152592547379986,-0.00958789839370912,-0.0136773786634927,-0.00585446740114546,0.0129601936908068,-0.0211696727398501,-0.158116397595141,0.00173955504013184,0.0384177170120345,0.0273445844904935,0.0270241401409955,-0.121641692353079,-0.138004699850459,-0.00961333048493912,0.0152389090650146,0.243008718120874
1.74,1,0.0166631061738945,0.000152592547379986,-0.00949634286528113,-0.0155949583422346,-0.00167343160293385,0.0161290322580645,-0.0187485376547543,-0.159744051433861,-0.000722271390931934,0.0261441897844376,0.0275276955473495,0.0363933225501267,-0.118269397055981,-0.134846034119694,-0.00961333048493912,0.0172175257627084,0.265694143498032
1.77,1,0.0168970814132104,0.000152592547379986,-0.00958789839370912,-0.0159357483647165,0.000152592547379986,0.0157577237261066,-0.021210364085818,-0.157892595192317,0.000356049277219967,0.0229397462894579,0.0269325846125675,0.0209662160100101,-0.115934731081067,-0.13274025696585,-0.0098117007965331,0.0148014770958586,0.286111026337474
1.8,1,0.0171920936714784,0.000152592547379986,-0.00991342916145309,-0.0163172297331665,0.000152592547379986,0.0150354523351746,-0.0197454756309702,-0.157506027405622,-5.08641824599953e-05,0.0189265622933643,0.0237891781365398,0.0240943632312998,-0.11413922544023,-0.13123976358328,-0.0100711081270791,0.0151219214453566,0.310307117933693
1.83,1,0.0174718466750084,0.000152592547379986,-0.0100202439446191,-0.0173294269641204,-0.00393180130415764,0.0154677978860846,-0.0198472039958902,-0.158482619708853,-0.0010884935046439,0.0114851323994669,0.0202693767103081,0.0291299172948393,-0.112058880377616,-0.129454430778934,-0.0100711081270791,0.0167241431928465,0.338465529343547
1.86,1,0.0176803898230944,0.000152592547379986,-0.0100711081270791,-0.0195216732281462,-0.00359609769992167,0.0191401918596962,-0.0186671549628183,-0.159967853836685,-0.000457777642139958,0.0075889360230313,0.02157658619953,0.0230923388368379,-0.11012095502589,-0.127725048575294,-0.0102694784386731,0.0227413759778639,0.366949471521144
1.89,1,0.0180059205908383,0.000152592547379986,-0.010381379640085,-0.0198268583229062,0.000152592547379986,0.0191808832056642,-0.0202948088015381,-0.158747113457645,0.000152592547379986,0.00699382508824936,0.0258033997619556,0.0205033519496241,-0.108427177749972,-0.12635680206712,-0.010528885769219,0.0182653279213843,0.403561510055849
1.92,1,0.0183772291227963,0.000152592547379986,-0.010549231442203,-0.0201422162541581,0.000152592547379986,0.0187434512365083,-0.0204982655313781,-0.159154026917325,-5.08641824599953e-05,0.00800093590095726,0.0313475956500951,0.0154271065401166,-0.107318338572344,-0.125639617094434,-0.010574663533433,0.0186162907803583,0.43760999379457
1.95,1,0.0187943154189683,0.000152592547379986,-0.010839157282225,-0.0203761914934741,0.000152592547379986,0.0187739697459843,-0.0192164881333862,-0.159805088452813,-0.000742617063915932,0.00857061474450921,0.0350962858973968,0.00946073793755913,-0.105878882208726,-0.124561296426283,-0.010986663411359,0.0187688833277383,0.467640207118951
1.98,1,0.0193283893347982,0.000152592547379986,-0.011159601631723,-0.0207118950977101,0.000152592547379986,0.0187281919817703,-0.0177515996785384,-0.160252693258461,-0.000132246874395988,0.0087181208736432,0.0318002868739891,-0.000915555284279916,-0.103050833663951,-0.122287667470321,-0.011200292977691,0.0190740684224982,0.490829187902463
2.01,1,0.0199591051973022,0.000152592547379986,-0.0115665150914029,-0.0209051789910581,0.000152592547379986,0.0189418215481023,-0.0169377727591784,-0.159235409609261,0.00178024638609984,0.0153406374299346,0.0298572751040173,0.00192266609698782,-0.100171920936715,-0.120029297769097,-0.0115665150914029,0.0190740684224982,0.504684591204566
2.04,1,0.0205694753868221,0.000152592547379986,-0.0117801446577349,-0.0210069073559781,0.000152592547379986,0.0192470066428622,-0.0177922910245064,-0.159479557685069,-0.000823999755851924,0.0174972787662384,0.0294707073173213,0.00274666585283975,-0.098137353638315,-0.118635619169693,-0.0120548112430189,0.0195623645741142,0.514094464959665
2.07,1,0.0210781172114221,0.000152592547379986,-0.0122989593188269,-0.021210364085818,0.000152592547379986,0.0195115003916542,-0.0168563900672424,-0.158991261533453,-0.00114953052359589,0.0175176244392224,0.0278735719880774,-0.00370291248308766,-0.0958891567735832,-0.116896064129561,-0.0124210333567309,0.0196844386120182,0.525376140629292
2.1,1,0.0225938698487299,0.00406913459679963,-0.0126346629230628,-0.021210364085818,0.000152592547379986,0.0196132287565742,-0.0164087852615945,-0.160089927874589,-0.00053916033407595,0.0147506129133986,0.0255643381043936,-0.00751772616758731,-0.0939970091860713,-0.116509496342865,-0.0141605883968627,0.0196844386120182,0.539221371094902
2.13,1,0.0242723878699098,0.00477106031474756,-0.0170700196335744,-0.021281573941262,0.000152592547379986,0.0195827102470982,-0.0146183660390027,-0.160334075950397,0.000315357931251971,0.0172022665079704,0.0160018718019145,-0.00666320790225939,-0.0919217505417035,-0.116122928556169,-0.0174667602567624,0.0196844386120182,0.547125665049186
2.16,1,0.0244148075807978,0.000345876440727968,-0.0153508102664266,-0.021362956633198,0.000152592547379986,0.0196844386120182,-0.0167750073753065,-0.160537532680237,0.00125125888851588,0.032634459466333,0.00995920692566708,-0.00508641824599953,-0.0903856522314117,-0.114678385774305,-0.0146183660390027,0.0196844386120182,0.552354503006073
2.19,1,0.0244148075807978,0.000152592547379986,-0.0143538722902107,-0.021454512161626,0.000152592547379986,0.0195827102470982,-0.0163274025696585,-0.160781680756045,-5.08641824599953e-05,0.0373546555986206,0.00659199804681539,-0.00162765383871985,-0.0899787387717317,-0.114251126641641,-0.0144962920010987,0.0198675496688742,0.552140873439741
2.22,1,0.0244961902727337,0.000152592547379986,-0.0144454278186387,-0.021657968891466,0.000152592547379986,0.0199184138513342,-0.0153101189204586,-0.161229285561693,-0.00167851802117985,0.0374462111270486,0.00290943123671173,-0.00880967640207119,-0.0888597267576118,-0.113254188665426,-0.0144962920010987,0.0201422162541581,0.535630359813227
2.25,1,0.0245674001281777,0.000152592547379986,-0.0143742179631947,-0.021668141727958,0.000152592547379986,0.0199489323608102,-0.0167343160293385,-0.160863063447981,-0.00289925840021973,0.0365713471887366,0.000803654082867926,-0.0152694275744906,-0.0884731589709159,-0.112959176407158,-0.0144962920010987,0.0201422162541581,0.492721335489975
2.28,1,0.0246284371471297,0.000152592547379986,-0.0144861191646067,-0.02152572201707,0.000152592547379986,0.0200811792352062,-0.0177515996785384,-0.161107211523789,-0.00184128340505183,0.0410067038992482,0.00188197475101983,-0.0379853714611245,-0.0894599241106398,-0.113976460056358,-0.0144962920010987,0.0201422162541581,0.416577654347362
2.31,1,0.0244249804172898,0.000152592547379986,-0.0143335266172267,-0.021342610960214,0.000152592547379986,0.0201320434176662,-0.0192978708253222,-0.160781680756045,-0.00350962858973968,0.0459608752708518,0.00893175043997518,-0.0588702047791986,-0.0903958250679037,-0.114800459812209,-0.0144962920010987,0.0198065126499222,0.320891954303618
2.34,1,0.0244351532537818,0.000152592547379986,-0.0143843907996867,-0.0209865616829941,0.000152592547379986,0.0201523890906501,-0.0246691284930977,-0.164647358623005,-0.00131229590746788,0.0534277372559791,0.022105573697114,-0.101484216844183,-0.0917996765037996,-0.116204311248105,-0.0144962920010987,0.0195623645741142,0.207668284147669
2.37,1,0.0246589556566057,0.000152592547379986,-0.0143436994537187,-0.0193080436618142,0.00429293699962361,0.0145268105105747,-0.0164087852615945,-0.161107211523789,-0.00387585070345164,0.0496230964079714,-0.00514745526495153,-0.160435804315317,-0.0900702943001597,-0.114647867264829,-0.0144962920010987,0.0132145146031068,0.11078218939787
2.4,1,0.0250251777703177,0.000152592547379986,-0.0145064648375907,-0.0195928830835902,-0.00390636921292764,0.00985747856074709,-0.032685323648793,-0.160985137485885,-0.010996836247851,0.0374767296365246,-0.0344655700348928,-0.252276172165085,-0.0987884151738029,-0.123752555925169,-0.0148625141148106,0.0230007833084099,0.0535091199479151
2.43,1,0.0254626097394737,0.000152592547379986,-0.0147302672404146,-0.0174362417472864,0.0033061718598997,0.00828068890448724,-0.053885514898119,-0.163833531703645,0.000396740623187963,0.0239163385926898,-0.0888495539211198,-0.383678701132237,-0.111575670644246,-0.136946724855291,-0.0149540696432386,0.0120853297524949,0.0191249326049582
2.46,1,0.0257067578152816,0.000152592547379986,-0.0151575263730786,-0.0173039948728904,0.00338755455183569,0.0102135278379671,-0.0811894080426445,-0.158543656727805,0.00589007232886746,-0.011393576871039,-0.15683462019715,-0.307758822392448,-0.120029297769097,-0.145634327219459,-0.0151982177190466,0.0173039948728904,0.0054424675232195
2.49,1,0.0257576219977416,0.000152592547379986,-0.0152999460839666,-0.0153609831029186,0.00162765383871985,0.00526952930285552,-0.097303181045971,-0.155654571164078,0.0075991088595233,-0.0450758384960479,-0.221320230719932,-0.131046479689932,-0.1315958128605,-0.157251706493322,-0.0154118472853786,0.0119734285510829,0.00239061657561978
2.52,1,0.0255541652679016,0.000152592547379986,-0.0152185633920306,-0.0150761436811426,0.000152592547379986,0.00944039226457513,-0.100232957955667,-0.152236498102766,0.00816878770307525,-0.0707419049653615,-0.276721498255359,-0.0506302072206793,-0.146478672648295,-0.171961628060752,-0.0150151066621906,0.0139774773400067,0.00127160456149988
2.55,1,0.0252388073366497,0.000152592547379986,-0.0149133782972706,-0.0146387117119867,0.000152592547379986,0.0117089348022909,-0.102593056021811,-0.150405387534206,0.0054424675232195,-0.0805993835261086,-0.359172338023011,-0.0740480768252612,-0.165837580492569,-0.190974659464298,-0.0149540696432386,0.0136112552262947,0.00122074037903989
2.58,1,0.0248318938769697,0.000152592547379986,-0.0148930326242866,-0.0140792057049267,0.000152592547379986,0.0129398480178228,-0.0914029358806116,-0.152846868292286,-0.000661234371979939,-0.0820032349620044,-0.415977456994334,-0.120782087669505,-0.189214758751183,-0.213995788445692,-0.0147709585863826,0.0131229590746788,0.00152592547379986
2.61,1,0.0243334248888618,0.000152592547379986,-0.0146285388754947,-0.0121361939349549,0.0075889360230313,0.0116784162928149,-0.0806197291990926,-0.156509089429406,-0.00737530645669932,-0.0799991861730806,-0.45209102654093,-0.129937640512304,-0.215521713919492,-0.239743237606942,-0.0144962920010987,0.00684631895911537,0.00156661681976786
2.64,1,0.021861425621306,-0.00659199804681539,-0.0131229590746788,-0.0131738232571388,-0.00719219539984334,0.00683614612262337,-0.0688192388683737,-0.160374767296365,-0.0134383170059308,-0.0679443749300617,-0.470524206264433,-0.102999969481491,-0.243354594561602,-0.265134637490972,-0.0100100711081271,0.0168360443942585,0.00167851802117985
2.67,1,0.0209560431735181,-0.00180059205908383,-0.00935900957263914,-0.011179947304707,0.00724305958230333,0.00837224443291523,-0.0598264514094465,-0.161229285561693,-0.0166529333374025,-0.054302601194291,-0.475569933164464,-0.0483209733369956,-0.271716462701295,-0.292580950346385,-0.010854416536963,0.00537125766777551,0.00167851802117985
2.7,1,0.0206203395692821,0.000122074037903989,-0.0115766879278949,-0.0121870581174149,-0.00490330718914355,0.00784325693533128,-0.0477004303109836,-0.158584348073773,-0.0163274025696585,-0.0383312479018525,-0.465386923835973,0.00183111056855983,-0.297819961139765,-0.318369090853603,-0.0120548112430189,0.0170191554511144,0.00167851802117985
2.73,1,0.0201727347636341,0.000152592547379986,-0.0119734285510829,-0.010803552354503,-0.000366222113711966,0.00637836848048341,-0.0393993957335124,-0.15602079327779,-0.0135603910438348,-0.0172022665079704,-0.440524511449527,0.0293486332794173,-0.313994771162043,-0.334086123233741,-0.0119327372051149,0.0076194545325073,0.00167851802117985
2.76,1,0.0194402905362102,0.000152592547379986,-0.0116173792738629,-0.010457675913775,0.00608335622221544,0.00787377544480728,-0.0300403861608732,-0.153213090405998,-0.010508540096235,0.00129195023448388,-0.39697459842728,0.0394400870794804,-0.319345683156835,-0.338714763837601,-0.011383404034547,0.00754824467706331,0.00167851802117985
2.79,1,0.0186569821263263,0.000152592547379986,-0.011251157160151,-0.011190120141199,-0.00716167689036734,0.00636819564399141,-0.0225938698487299,-0.146051413515631,-0.00684631895911537,0.0154016744488866,-0.364706361074658,0.0390738649657684,-0.317484054078799,-0.336079999186173,-0.010925626392407,0.0149337239702546,0.00167851802117985
2.82,1,0.0158797977640105,-0.00614439324116743,-0.0101524908190151,-0.00943021942808313,0.00584938098289946,0.00672424492121138,-0.0180364391003143,-0.141127760653503,-0.00452691223893958,0.0233263140761539,-0.335113579719433,0.0367544582455926,-0.308603167821284,-0.324381237220374,-0.00682597328613137,0.00347911008026368,0.00167851802117985
2.85,1,0.0151575263730786,0.0032553076774397,-0.00742617063915932,-0.0103050833663951,0.000681580044963937,0.00791446679077527,-0.0115258237454349,-0.139255958738975,-0.00289925840021973,0.0295927813552253,-0.320993682668538,0.0443840856145919,-0.304086428418836,-0.319152399263487,-0.010518712932727,0.0122582679728589,0.00167851802117985
2.88,1,0.0100355031993571,-0.00507624540950753,-0.00623594876959543,-0.00897244178594317,0.00161748100222785,0.0043539740185756,0.0189926857305623,-0.144159265928119,-0.000803654082867926,0.0380769269895525,-0.198828089236122,0.0597755872269865,-0.278567868078656,-0.288542334259061,-0.00269071525213375,0.00613422040467544,0.00167851802117985
2.91,1,0.00527970213934751,-0.00398775190486363,-0.000427259132663961,-0.00900296029541917,0.000152592547379986,0.00621051667836543,0.0189723400575783,-0.146336252937407,-0.0010681478316599,0.0381379640085045,-0.022222561316772,0.0943632312997833,-0.228507339701529,-0.233690399894202,-0.000493382569861955,0.00839259010589923,0.00167851802117985
2.94,1,0.00168869085767184,-0.00288908556372773,-0.00097659230323191,-0.00900296029541917,0.000152592547379986,0.00748720765811131,0.0235501164789778,-0.151422671183406,0.000966419466739911,0.0402132226528723,0.0878526159449039,0.148589536220384,-0.176981922869554,-0.17853836685283,-0.000600197353027945,0.00839259010589923,0.00167851802117985
2.97,1,-0.00144454278186387,-0.00173955504013184,0.00246182643106377,-0.00886562700277718,0.000152592547379986,0.00807214575640126,0.0389314452548804,-0.156549780775374,0.00267545599739575,0.0306405835139012,0.226233710745567,0.224194057028921,-0.118249051382997,-0.116550187688833,0.00205999938962981,0.00839259010589923,0.00167851802117985
3,1,-0.00341298664306569,0.00011190120141199,0.00178024638609984,-0.00896735536769718,0.000152592547379986,0.00816370128482925,-0.0238349559007538,-0.158706422111677,0.0257474491612496,-0.0269224117760755,0.290693889177119,0.281268756167282,-0.0620797346924243,-0.0584378592282886,0.00194809818821782,0.00839259010589923,0.00167851802117985
3.03,1,-0.0130720948922188,-0.0257321899065116,0.00708538061667735,-0.00970488601336711,-0.00393180130415764,0.00854009623503321,-0.259417503382468,-0.158564002400789,0.0383210750653605,-0.112933744315928,0.0397961363567003,0.305464847763502,-0.0491551459293395,-0.0358643350525427,0.0157170323801386,0.00959807123020112,0.00680054119490137
3.06,1,-0.0296945097201453,-0.0470290231025117,0.0409660125532802,-0.0155949583422346,-0.0207169815159561,0.0146590573849707,-0.00450656656595559,-0.184891303242083,0.00169886369416384,-0.0454166285185298,0.148258919034394,0.379380677714367,-0.0446536657816299,-0.0147455264951526,0.0447553941465499,0.0276446831670075,0.0676900540177618
3.09,1,-0.0317341634367911,-0.00441501103752759,0.0249437950783817,-0.021256141850032,-0.0115970336008789,0.0273547573269855,-0.087109998880988,-0.145705537074903,-0.00955229346598712,0.00086977752006592,0.246197902361115,0.362722657958719,-0.0386923835973184,-0.00674459059419538,0.021744438001648,0.0290637938576413,0.156254768517106
3.12,1,-0.0338501134271269,-0.00209051789910581,0.0230262153996399,-0.0270292265592415,-0.0176346120588804,0.0310881883195491,-0.0774661498865729,-0.14981536301767,-0.0270088808862575,0.021917376222012,0.230394400870795,0.17083244321014,-0.043514308094526,-0.00945056510106713,0.02216152429782,0.0362610756757307,0.248980173141677
3.15,1,-0.0348521378215888,0.00011190120141199,0.0210323394472081,-0.0351166315703808,-0.02221238848028,0.04356008585874,-0.0513016144291513,-0.157994323557237,-0.0170801924700664,0.0156559953611866,0.248390148625141,0.00635293638925342,-0.0476241340372936,-0.0125685394858648,0.0211645863216041,0.0489822077089755,0.340744244717755
3.18,1,-0.0355845820490127,0.000152592547379986,0.021490117089348,-0.0384838404492325,-0.00311797438479771,0.0426953947569201,-0.0575477360352387,-0.161717581713309,-0.00259407330545976,0.0135705638803268,0.269610685547451,-0.000946073793755913,-0.0418205308186082,-0.00602231920326345,0.02157658619953,0.0381583096814885,0.432462538529618
3.21,1,-0.0362051250750247,0.000152592547379986,0.021922462640258,-0.0448266040019939,-0.022090314442376,0.0501164789778334,-0.0552283293150629,-0.149550869268878,-0.00582903530991546,0.022115746533606,0.267535426903083,0.0340535701569669,-0.0584683777377646,-0.022054709514654,0.022125919370098,0.0553860082806889,0.507944985300251
3.24,1,-0.0366985076448866,0.000152592547379986,0.02221238848028,-0.0513677378663493,-0.0164850815352845,0.0595416119876705,-0.0478835413678396,-0.157302570675782,-0.0103050833663951,0.00189214758751183,0.270760216071047,0.032558163192643,-0.0736157312743512,-0.0366679891354106,0.0224158452101199,0.0596077354248685,0.568920967233294
3.27,1,-0.0371003346863206,0.000152592547379986,0.0225430056662699,-0.0556555884477269,-0.00828577532273324,0.0581581062247587,-0.0447503077283039,-0.157872249519333,-0.010691651153091,-0.00512202317372153,0.271940265104119,0.0139164403210547,-0.0821558275093845,-0.0448418632567319,0.0225836970122379,0.0577410199285867,0.627964110232856
3.3,1,-0.0374360382905566,0.000152592547379986,0.0226243883582059,-0.0599281797743665,-0.0137231564277067,0.0635598824020101,-0.043448184657328,-0.155959756258838,-0.0086774295276752,-0.0150710572628966,0.268751080863877,0.0178075502792444,-0.0908332570370596,-0.0531835891801711,0.0228431043427839,0.065548671936196,0.687683746859137
3.33,1,-0.0377310505488245,0.000152592547379986,0.0230313018178859,-0.0615965249590543,-0.000386567786695964,0.0585548468479466,-0.0404777164016643,-0.158462274035869,-0.00790429395428327,-0.0180669576097903,0.263374736777856,0.00415560370698162,-0.0922727134006775,-0.054328033285521,0.0230414746543779,0.0579037853124587,0.73963133640553
3.36,1,-0.0379395936969105,0.000152592547379986,0.0230567339091159,-0.0622679321675263,0.000152592547379986,0.0572527237769707,-0.0390535192927844,-0.156041138950774,-0.00509659108249153,-0.0087232072918892,0.26049582405062,0.00516780093793552,-0.0957823419904172,-0.0575986002176987,0.0230414746543779,0.0574816125980407,0.785515915402692
3.39,1,-0.0381990010274565,0.000152592547379986,0.0230109561449019,-0.0629088208665222,0.000152592547379986,0.0580309457686087,-0.0385041861222165,-0.154881435590686,-0.00515762810144353,0.00054424675232195,0.2642089093702,0.0166529333374025,-0.097766045106357,-0.0593534145125685,0.0232093264564959,0.0580309457686087,0.835525579597359
3.42,1,-0.0385041861222165,0.000152592547379986,0.0234839930417798,-0.0633716849269082,0.000152592547379986,0.0584785505742566,-0.0374665568000326,-0.155349386069318,-0.00804671366517126,0.000116987619657989,0.273354289376507,0.00606809696747744,-0.0989206620481989,-0.0602282784508805,0.0234992522965178,0.0586057110304066,0.888129317097486
3.45,1,-0.0386008280688904,0.000152592547379986,0.0235958942431918,-0.0637429934588661,0.000152592547379986,0.0587633899960326,-0.032298755862097,-0.161392050945565,-0.00849431847081922,-0.00505081331827753,0.28400524918363,0.0115970336008789,-0.0959857987202572,-0.0572323781039867,0.0234992522965178,0.0589465010528886,0.942304757835627
3.48,1,-0.0384533219397565,0.000152592547379986,0.0237332275358338,-0.0639362773522141,0.000152592547379986,0.0588549455244606,-0.0263985106967376,-0.162917976419365,-0.00910468866033916,-0.00904873805963317,0.282825200150558,-0.00665303506576739,-0.0888292082481358,-0.0500757876318654,0.0234992522965178,0.0592059083834345,0.995839309874772
3.51,1,-0.0384533219397565,0.000152592547379986,0.0235552028972238,-0.0616524755597603,0.00795515813674327,0.0514542069765313,-0.0224311044648579,-0.167190567746005,-0.0102237006744591,-0.0238756472467218,0.269961648406425,-0.0117903174942269,-0.0765963723665069,-0.0379090751874345,0.0234992522965178,0.0517136143070772,1.02788374482457
3.54,1,-0.0384533219397565,0.000152592547379986,0.0234433016958118,-0.0559760327972249,0.0252337209184037,0.0450402335683259,-0.0135807367168188,-0.163040050457269,-0.0065004425183874,-0.0363526312041587,0.276268807031465,-0.00645975117241941,-0.0614998830123803,-0.0228431043427839,0.0234992522965178,0.0381888281909645,1.03495895260475
3.57,1,-0.0383871985025585,0.000152592547379986,0.0235450300607318,-0.043493962421542,0.043626209295938,0.0250251777703177,-0.02147485783461,-0.157363607694734,-0.00686666463209937,-0.0369986063214006,0.293664357432783,-0.00679036835840938,-0.0508489232052573,-0.0122226630451369,0.0234992522965178,0.010752688172043,1.03070162053285
3.6,1,-0.0360220140181687,0.00788903469954527,0.0199438459425642,-0.032909126051617,0.0288145593635873,0.00822982472202724,-0.0208848333180741,-0.157465336059654,-0.00672424492121138,-0.0444095177058219,0.303857539597766,-0.00912503433332316,-0.0396893215735343,-0.00351471500798568,0.0185094759971923,0.00910468866033916,1.02149011708935
3.63,1,-0.0362763349304687,0.0011139255958739,0.0197861669769382,-0.0273751029999695,0.0120802433342489,0.00950651570177313,-0.0153101189204586,-0.158035014903205,-0.00340790022481969,-0.0443332214321319,0.3222500279753,-0.0121412803532009,-0.0256965849787896,0.010656046225369,0.021362956633198,0.0167648345388145,1.0155796990875
3.66,1,-0.0341349528489029,0.00783308409883928,0.0207017222612181,-0.0147862178411206,0.0412101606290882,0.0010427157404299,-0.0129093295083468,-0.160395112969349,-0.00393688772240364,-0.0441145054475539,0.362341176590269,-0.0098015279600411,-0.0132094281848608,0.0209662160100101,0.0182653279213843,-0.010671305480107,1.02550330108544
3.69,1,-0.0283160903754794,0.0187994018372143,0.0124312061932229,0.00230414746543779,0.0489364299447615,-0.0178482416252124,-0.0137435021006907,-0.161473433637501,-0.00525935646636352,-0.0472629983418277,0.420997751803135,-0.00797550380972727,0.0101168858912931,0.0386313465783664,0.00858587399924721,-0.0350555945514288,1.02980132450331
3.72,1,-0.0223293760999379,0.0163579210791345,0.00662251655629139,0.0181585131382183,0.0429090243232521,-0.0371155939410586,-0.00745668914863531,-0.165298420158493,-0.00576799829096347,-0.0563626005839208,0.487772250536617,-0.00404370250556963,0.0372122358877326,0.0597654143904945,0.00463881344035157,-0.0449537644581439,1.03010650959807
3.75,1,-0.0172887356181524,0.00664794864752139,0.00715150405387534,0.0381023590807825,0.0606758832565284,-0.0719422996714174,0.00717184972685934,-0.162694174016541,-0.00381481368449965,-0.0644856105227821,0.518758710491246,-0.00351980142623168,0.0670237332275358,0.0845362712485122,0.00855026907152521,-0.0743736075930052,1.02600177007355
3.78,1,-0.0011240984323659,0.0385855688141524,-0.00445061596524959,0.0586057110304066,0.0587786492507706,-0.0922320220547095,0.00617491175064343,-0.161107211523789,-0.00320444349497971,-0.0589973652353486,0.477131463565986,-0.0144403414003927,0.0959908851385032,0.097303181045971,-0.0148472548600726,-0.0931730094302194,1.02900275683869
3.81,1,0.010691651153091,0.0260475478377636,-0.021698660237434,0.0793277789646087,0.0574409212520727,-0.112735374004334,0.0160425631478825,-0.158136743268125,-0.00355031993570767,-0.0888088625751518,0.491083508814763,-0.0285602384512874,0.125782036805322,0.115181941180659,-0.021357870214952,-0.113396608376314,1.02535579495631
3.84,1,0.0161137730033265,0.00769575080619729,-0.0141758476516007,0.0985239214250109,0.0587125258135726,-0.126748456272062,0.0180974761192663,-0.157892595192317,-0.00139367859940387,-0.111285744804224,0.477085685801772,-0.0512609230831833,0.154988250373852,0.138915168716493,-0.0117903174942269,-0.1298155664744,1.02354503006073
3.87,2,0.0306100650044252,0.0379955442976165,-0.0236925361898658,0.116875718456577,0.0507522812585833,-0.140822575558743,-0.000457777642139958,-0.178482416252124,-0.00635802280749942,-0.132643615019176,0.570706300037639,-0.0150557980081586,0.184982858770511,0.154454176458022,-0.0338450270088809,-0.143589587084567,1.0099185155797
3.9,2,0.0475173192541276,0.0471917884863837,-0.0454115421002838,0.133905046744184,0.0519831944741152,-0.143803216650899,0.043977172154912,-0.15459659616891,0.00165817234819585,-0.173385825169632,0.586881110059918,-0.010905280719423,0.220679342020936,0.173243405458744,-0.0426547034109521,-0.140364797916603,0.971861934263131
3.93,2,0.0668457085889258,0.0590126244900866,-0.0344045330159408,0.154016744488866,0.0588396862697226,-0.143040253913999,0.00739565212968332,-0.188980783511867,0.0172429578539384,-0.199672434664958,0.598142440056561,-0.108371227149266,0.255653553880428,0.188899400819931,-0.0311797438479771,-0.153284300261442,0.841252886542355
3.96,2,0.0969878231147191,0.0943021942808313,-0.0185755994343903,0.155959756258838,-0.0227057710501419,-0.172500788394828,0.000518814661091952,-0.239193904436374,0.00397757906837163,-0.184769229204179,0.613523768832464,-0.113671274961598,0.291889197464929,0.194992929878638,0.00199387595243182,-0.187658314767907,0.692139449242632
3.99,2,0.151453189692882,0.180384736676127,0.0128482924893948,0.127801344848984,-0.124098432365897,-0.183355204931791,-0.0175074516027304,-0.28110599078341,0.0258695231991536,-0.143528550065615,0.758781701101718,-0.109134189886166,0.332733135980305,0.181371501815851,0.032125817641733,-0.191686758018738,0.592445651621041
4.02,2,0.242703533026114,0.3078198594114,0.0237637460453098,0.0754010640786971,-0.198166854864142,-0.159815261289305,-0.0402132226528723,-0.296609393597217,0.0235094251330098,-0.100009155552843,0.982126326283558,-0.254412467828405,0.384919787184261,0.142297636850083,0.0276090782392855,-0.160537532680237,0.498825037385174
4.05,2,0.361939349548835,0.40802229885759,0.0075584175135553,0.00549333170567949,-0.255033010854417,-0.10757774590289,-0.0448520360932239,-0.277769300414034,0.0054424675232195,-0.10396638894823,1.15342671997233,-0.232612079226051,0.450931323180843,0.0890835291604358,0.00584938098289946,-0.106855474511958,0.323455509099602
4.08,2,0.491459903764967,0.442752362641275,-0.00899278745892717,-0.0808435316019166,-0.301126132999664,-0.0522171697134312,-0.022146265043082,-0.198828089236122,-0.00729392376476333,-0.135278379670604,1.03671376689962,-0.225307982624795,0.517553229366944,0.0262153996398816,-0.00723288674581133,-0.0471104057944477,0.114515620390433
4.11,2,0.617247026988535,0.4340749331136,-0.0194097720267342,-0.171361430707724,-0.296904405855485,0.0417086296171962,-0.0141707612333547,-0.15581733654795,-0.0226345611946979,-0.11073132521541,0.773796807763909,-0.195542263049206,0.571560818302967,-0.0454115421002838,-0.0248827580594297,0.0958077740816472,0.0253507085380617
4.14,2,0.721416872666606,0.360657572150843,-0.0305592008219652,-0.194260485651214,0.0248522395499537,0.103681549526454,-0.0258898688721376,-0.08717103589994,-0.0164087852615945,-0.122562334055605,0.314991709138259,-0.0171514023255104,0.604561499883012,-0.116621397544277,-0.033143101290933,0.128767764315724,0.0065207881913714
4.17,2,0.790470086774295,0.24431084119185,-0.0270495722322255,-0.129825739310892,0.275694041769667,0.0513829971210873,-0.0559200821965189,-0.0562456129642628,-0.0196640929390342,-0.0227464623961099,-0.19322285632903,-0.0637124749493901,0.607013153477584,-0.183233130893887,-0.0277718436231574,0.0525528733176672,0.00262459181493576
4.2,2,0.823898027487004,0.123040457370729,-0.0422376171147801,-0.0349640390230008,0.337880591245257,0.00612404756818344,-0.0625934629352702,-0.0386262601601204,-0.00904365164138717,-0.102114932706687,-0.744560075685904,-0.0820540991444645,0.577827285582039,-0.245836766665649,-0.0664591408022299,-0.0225430056662699,0.00181076489557583
4.23,2,0.787255470442824,-0.118269397055981,-0.118442335276345,0.0351878414258248,0.200994903408918,-0.0475478377636036,-0.229265216020183,0.0701823989583015,-0.0232449313842179,-0.0848211106702882,-1.68835515406761,-0.106529943744214,0.435458438876512,-0.351563056326996,-0.125471765292316,-0.0728782006286813,0.00167851802117985
4.26,2,0.674631997639902,-0.375479394919685,-0.0597247230445265,0.043671987060152,-0.00632750429802342,-0.0314137190872931,-0.133844009725232,-0.114881842504145,-0.0117292804752749,0.0179652292448703,-2.61686045920184,-0.210781172114221,0.273445844904935,-0.400942004659159,-0.0623187963499863,-0.0199896237067782,0.00167851802117985
4.29,2,0.523860387991984,-0.508000935900957,-0.0171819208349864,0.0274564856919055,-0.0510778120263273,0.00192266609698782,-0.0392773216956084,-0.266701254310739,-0.0149032054607786,0.0102847376934111,-3.02988779361349,-0.131473738822596,0.103417055777662,-0.420229702647989,-0.0129500208543148,0.00407930743329162,0.00167851802117985
4.32,2,0.36441134881639,-0.533524582659383,0.0189011302021343,0.0184433525599943,-0.0200201422162542,0.00102745648569191,0.114942879523097,-0.481470178329824,-0.0152287362285226,0.0825423952960804,-2.84325693533128,-0.00371308531957966,-0.0792057049267047,-0.443515325378175,0.0198878953418582,-0.000142419710887987,0.00167851802117985
4.35,2,0.213619393495488,-0.499506617430138,0.0390331736198004,0.0160018718019145,-0.00699891150649536,-0.00292977690969573,0.0918708863592435,-0.401918596962391,-0.0238146102277698,0.114525793226925,-2.38620156458225,0.267291278827275,-0.23368022705771,-0.447197892188279,0.0427462589393801,-0.00378429517502365,0.00167851802117985
4.38,2,0.0962248603778191,-0.396354055401268,0.043753369752088,0.0142928352712587,-0.000823999755851924,-0.00203456729839981,0.0939461450036114,-0.317443362732831,-0.00595110934781945,0.132602923673208,-1.8289946185695,0.504440443128758,-0.359162165186519,-0.455264951526434,0.0480666524246956,-0.00414034445224362,0.00167851802117985
4.41,2,0.0195013275551622,-0.260200811792352,0.0393688772240364,0.0122074037903989,-0.00753807184057131,-0.00286873989074374,0.0778730633462528,-0.229143141982279,0.0150049338256986,0.103569648325042,-1.3249814345734,0.596565650400301,-0.451897742647582,-0.471307514674317,0.0407320373139642,-0.0022176783552558,0.00167851802117985
4.44,2,-0.021393475142674,-0.139286477248451,0.0291451765495773,0.011261329996643,1.01728364919991e-05,-0.00248217210404777,0.0906908373261717,-0.181941180659403,0.0141911069063387,0.128279468164108,-0.917579678741824,0.506953133742281,-0.517848241625212,-0.496241136916206,0.0276599424217455,-0.00357066560869167,0.00167851802117985
4.47,2,-0.0457574185410118,-0.0801721243934446,0.022105573697114,0.010864589373455,0.000152592547379986,-0.00314340647602771,0.110995818964202,-0.159235409609261,0.022125919370098,0.15210425122837,-0.599332661926125,0.299040701518805,-0.562425611133152,-0.516434217352824,0.0210475987019461,-0.00347911008026368,0.00167851802117985
4.5,2,-0.0596229946796065,-0.0441195918657999,0.0186061179438663,0.010467848750267,0.000152592547379986,-0.00345876440727968,0.131300800602232,-0.132297738578448,0.0263578193507696,0.169682912686544,-0.157597582934049,-0.00770083722444329,-0.567013560391044,-0.507146417635629,0.0185450809249143,-0.00320444349497971,0.00167851802117985
4.53,2,-0.0566321807509588,0.010478021586759,0.0126244900865708,0.0100914538000631,0.000152592547379986,-0.00331634469639169,0.0895514796390678,-0.114027324238818,0.0336822616250089,0.17907244076866,0.0847804193243202,-0.266813155512151,-0.48007649973042,-0.423220516576637,0.00849431847081922,-0.00320444349497971,0.00167851802117985
4.56,2,-0.0580767235328227,-0.00203456729839981,0.00883002207505519,0.00753807184057131,-0.00767031871496729,6.10370189519944e-05,0.0574866990162867,-0.123142185735649,0.0293689789524013,0.133243812372204,0.220068971831416,-0.348094119083224,-0.432172612689596,-0.373882259590442,0.0100100711081271,-0.00043743196915596,0.00167851802117985
4.59,2,-0.0584938098289946,-0.000122074037903989,0.0101219723095391,0.0076296273689993,0.000142419710887987,0.000630715862503942,0.0305490279854732,-0.129937640512304,0.0187892290007223,0.087282937101352,0.363434756513159,-0.341614022237821,-0.369101026439202,-0.310403759880367,0.0100405896176031,-0.00228888821069979,0.00167851802117985
4.62,2,-0.0575579088717307,0.00406913459679963,0.00995920692566708,0.00754824467706331,0.000152592547379986,0.000640888698995941,0.00633767713451542,-0.123427025157425,0.00955229346598712,0.0716167689036734,0.475814081240272,-0.316039511296935,-0.343618071026744,-0.285765149896746,0.00945056510106713,-0.00228888821069979,0.00167851802117985
4.65,2,-0.054587440616067,0.00940987375509914,0.0086570838546912,0.00747703482161931,0.000152592547379986,0.000640888698995941,-0.00794498530025127,-0.124932604958241,0.011342712688579,0.0659708446506139,0.600502538122705,-0.28431043427839,-0.311360006510615,-0.256518244982248,0.00793481246375927,-0.00228888821069979,0.00167851802117985
4.68,2,-0.0497553432823674,0.010752688172043,0.0075991088595233,0.00745668914863531,0.000152592547379986,0.000630715862503942,-0.0289417198197373,-0.136570329905087,0.0115868607643869,0.0477004303109836,0.756309701834162,-0.26247952716656,-0.266619871618803,-0.216661071606596,0.00679545477665537,-0.00228888821069979,0.00167851802117985
4.71,2,-0.0370901618498286,0.0287993001088493,0.00454725791192358,0.00719219539984334,0.000152592547379986,0.000640888698995941,-0.0704875840530615,-0.142918179876095,0.00967436750389111,0.0146794030579546,0.587003184097822,-0.184097821995707,-0.225216427096367,-0.187892290007223,0.00287891272723574,-0.00228888821069979,0.00167851802117985
4.74,2,-0.0238451287372458,0.0314238919237851,0.000305185094759972,0.00699891150649536,0.000152592547379986,0.000610370189519944,-0.0631631417788222,-0.162083803827021,0.00129195023448388,0.0150863165176346,0.600492365286213,-0.0816370128482925,-0.189560635191911,-0.165461185542365,-0.000610370189519944,-0.00228888821069979,0.00167851802117985
4.77,2,-0.0130924405652028,0.0272225104525895,0.000172938220363984,0.00681580044963937,0.000152592547379986,0.000610370189519944,-0.0705282753990295,-0.17754651529486,0.00234992522965178,0.00410982594276762,0.535081026642659,0.0332244839828689,-0.156142867315694,-0.142826624347667,-0.00129195023448388,-0.00208543148085981,0.00167851802117985
4.8,2,-0.00365204830062766,0.0246742149113437,-0.00237535732088178,0.00659199804681539,0.000152592547379986,0.000610370189519944,-0.0808842229478846,-0.178889329711804,0.000579851680043947,-0.00506607257301553,0.518636636453342,0.118956063519191,-0.124515518662069,-0.120660013631601,-0.00282296212652974,-0.00167851802117985,0.00167851802117985
4.83,2,0.00334177678762169,0.0176396984771264,-0.00310271513005971,0.0065614795373394,0.000152592547379986,0.000630715862503942,-0.0819828892890204,-0.181473230180771,5.08641824599953e-05,-0.00946582435580513,0.458281197546312,0.181890316476943,-0.0964079714346751,-0.0996581926938688,-0.00287382630898974,-0.00167851802117985,0.00167851802117985
4.86,2,0.00942004659159113,0.0155390077415286,-0.0032400484227017,0.0064953561001414,0.000152592547379986,0.00065106153548794,-0.187739697459843,-0.162348297575813,0.00192266609698782,-0.0482548498997976,0.298354035055595,0.246813358968881,-0.0723288674581133,-0.0816675313577685,-0.00352488784447768,-0.00167851802117985,0.00167851802117985
4.89,2,0.0130364899644968,0.00991851557969909,-0.00351471500798568,0.00640888698995941,0.000152592547379986,0.000610370189519944,-0.0998667358419548,-0.162104149500005,-0.00721254107282734,-0.0698619546088036,0.248664815210425,0.326171656442966,-0.0572781558682007,-0.0702434359772535,-0.00367239397361166,-0.00167851802117985,0.00167851802117985
4.92,2,0.0140486871954507,0.00076296273689993,-0.00306711020233772,0.00640888698995941,0.000152592547379986,0.000610370189519944,-0.065197709077222,-0.158523311054821,-0.0163070568966745,-0.098020366018657,0.151153091016368,0.432304859563992,-0.0457828506322418,-0.0597501551357565,-0.00228888821069979,-0.00167851802117985,0.00167851802117985
4.95,2,0.0146641438032167,0.000152592547379986,-0.0021413820815658,0.00622068951485743,-0.000162765383871985,0.000610370189519944,-0.00997955259865108,-0.229916277555671,0.0529089225948871,-0.193533127842036,0.221289712210456,0.321426028219448,-0.0449690237128819,-0.0595416119876705,-0.00228888821069979,-0.00167851802117985,0.00230923388368379
4.98,4,0.0205593025503301,0.0163986124251025,-0.0032451348409477,-0.00463881344035157,-0.0500096641946674,0.00465407269508957,-0.0349640390230008,-0.321634571367534,-0.0320342621133051,-0.0577410199285867,0.412971383810948,-0.00572222052674947,-0.0260984120202236,-0.0465763318786177,-0.00471002329579557,0.010910367137669,0.20059816278573
5.01,4,0.0463627023122857,0.0809401735485906,-0.0291655222225613,-0.0378683838414665,-0.115939817499313,0.0252998443556017,-0.0309559414451532,-0.162816248054445,0.0146997487309386,0.0384075441755425,0.555604724265267,0.0853297524948882,0.00173446862188584,-0.0444807275612659,-0.0457879370504878,0.0599078341013825,0.452792952258878
5.04,4,0.0740633360799992,0.0858689128289641,-0.0877152826522619,-0.0462914924568417,0.0120955025889869,0.0407829014964243,0.0723390402946053,-0.204809717093417,-0.00121056754254789,-0.00679036835840938,0.555533514409823,-0.00791955320902127,0.0378022604042685,-0.0360321868546607,-0.0890580970692058,0.0244707581815037,0.660802026429029
5.07,4,0.0900245165359457,0.0493433434044415,-0.0800653096102786,-0.0150557980081586,0.113895077364422,-0.000788394828129927,-0.00552385021515549,-0.165807061983093,-0.0043844925280516,0.00202439446190781,0.409512619403668,-0.0124210333567309,0.0659352397228919,-0.0238502151554918,-0.0800856552832626,-0.0525732189906512,0.740312916450494
5.1,4,0.0989359213029369,0.0245979186376537,-0.0738903978596352,0.00348419649850968,0.0334279407127089,-0.0308491266619872,-0.00951160212001912,-0.157221187983846,-0.00513728242845953,-0.010442416659037,0.244544816431166,-0.0162765383871985,0.0854365672780541,-0.0132552059490748,-0.0684530167546617,-0.0285653248695334,0.696584978789636
5.13,4,0.104149500005086,0.0160629088208665,-0.0171717479984944,-0.000284839421775974,-0.0158035014903205,-0.0134840947701448,-0.010345774712363,-0.164464247566149,0.00344859157078768,0.000401827041433963,0.201564582252469,-0.021464684998118,0.0885443688263599,-0.0153609831029186,-0.00728883734651733,0.00668863999348938,0.607292906481114
5.16,4,0.119388409070101,0.0497960346283354,-0.0176905626595864,0.00948108361054313,0.0416730246894742,-0.00345367798903368,-0.0021464684998118,-0.152724794254382,-0.00373343099256366,0.00823999755851924,0.340851059500921,0.0246030050558997,0.10465305541144,-0.0144810327463607,-0.0256609800510676,-0.0131076998199408,0.529272337005727
5.19,4,0.130751467431664,0.0391603340759504,-0.0252744122643717,0.0281380657368694,0.0591143528550066,-0.0134942676066368,0.00379446801151565,-0.155430768761254,-0.00230923388368379,-0.0179194514806564,0.34596290983815,-0.00754824467706331,0.125471765292316,-0.00505589973652353,-0.0227261167231259,-0.0256762393058056,0.482879116183966
5.22,4,0.145629240801213,0.0471765292316457,-0.022125919370098,0.0482039857173376,0.0612455621000804,-0.0238400423189998,-0.0021464684998118,-0.156590472121342,0.000620543026011943,-0.0225989562669759,0.423149306721193,-0.00261950539668976,0.150013733329264,0.00446587521998759,-0.0244148075807978,-0.0291350037130853,0.475412254198838
5.25,4,0.170842616046632,0.0784732606992808,-0.0368460137740206,0.0752484715313171,0.087150690226956,-0.0351268044068728,0.0117089348022909,-0.151626127913246,-0.0021261228268278,-0.0187790561642303,0.518275500757876,-0.00065106153548794,0.181198563595487,0.010467848750267,-0.0410270495722322,-0.0424410738446201,0.493870866013571
5.28,4,0.198390657266966,0.0913113803521836,-0.0496536149174474,0.10467848750267,0.0958484654276152,-0.0499384543392234,0.0139876501764987,-0.163426618243965,0.000559506007059949,-0.0297758924120813,0.563361512090416,-0.00384533219397565,0.213710949023916,0.0154016744488866,-0.0487278867966755,-0.0526851201920632,0.538285470137638
5.31,4,0.236823633533738,0.128401542202012,-0.0661336100344859,0.134454379914752,0.097262489700003,-0.0600604266487625,0.0188706116926583,-0.173395998006124,0.000356049277219967,-0.0223904131188899,0.681356242561113,0.0053814305042675,0.250923184911649,0.0141504155603707,-0.0664998321481979,-0.0585039826654866,0.58989226966155
5.34,4,0.286467075614694,0.166651407411929,-0.0883103935870439,0.170710369172236,0.122084210740481,-0.0715760775577054,0.021312092450738,-0.160985137485885,-0.00411999877925962,-0.0251167332987457,0.770683919797357,0.0177922910245064,0.295185196488337,0.00884019491154719,-0.0889818007955158,-0.0725018056784773,0.607216610207424
5.37,4,0.342387157811212,0.187098808760847,-0.100721254107283,0.208746604815821,0.1260007527899,-0.0821965188553524,0.0436109500412,-0.145196895250303,-0.000579851680043947,-0.0497553432823674,0.788282926928515,0.0369172236294646,0.342112491225929,-0.000122074037903989,-0.100843328145187,-0.0816471856847845,0.614327422915331
5.4,4,0.402488275805943,0.203253273110141,-0.110507522812586,0.251777703176977,0.144535660878323,-0.0956857000437432,0.0242011780144658,-0.169042023987548,-0.00139367859940387,-0.0356964832504247,0.857336141036205,0.0226243883582059,0.39107435326192,-0.011169774468215,-0.110080263679922,-0.0955432803328552,0.613686534216335
5.43,4,0.469944354584389,0.228054648477635,-0.122959074678793,0.293923764763329,0.136000651061535,-0.100273649301635,0.0549638355662709,-0.166885382651245,3.05185094759972e-05,-0.0556861069572029,0.933683278908658,0.0298572751040173,0.445326090273751,-0.0243741162348298,-0.123661000396741,-0.101748710592975,0.605121005890072
5.46,4,0.540981271808018,0.239997558519242,-0.131351664784692,0.333618172755109,0.131809442426832,-0.103925697602262,0.0622882778405103,-0.165094963428653,0.00381481368449965,-0.0514135156305633,0.960580258593504,0.0578427482935067,0.501988789534186,-0.0387585070345164,-0.131199072237312,-0.106885993021434,0.59136733095289
5.49,4,0.615568508967355,0.252815332499161,-0.137465539516383,0.37102369253619,0.122063865067497,-0.11195206559445,0.0630207220679342,-0.159560940377005,0.00194301176997182,-0.0233059684031699,1.05109815769931,0.0819116794335765,0.56256803084404,-0.0527461572110152,-0.138177638070823,-0.109744560075686,0.580390840378023
5.52,4,0.695445621102532,0.269753105258339,-0.14925585701061,0.411308125044506,0.139550970997243,-0.122816654967905,0.0929288613544114,-0.127089246294544,0.0101626636555071,-0.0464186529129917,1.09048738059633,0.0343638416699728,0.626870530309966,-0.0683207698802657,-0.148574276965646,-0.123416852320933,0.541845962909838
5.55,4,0.77797784356212,0.282041891740674,-0.156061484623758,0.452711569566942,0.135797194331695,-0.127150283313496,0.0838139998575803,-0.14991709138259,-0.000701925717947935,-0.0191249326049582,1.2123376160975,0.0705079297260455,0.696055991292052,-0.0816980498672445,-0.15515610217597,-0.130568356374808,0.48282316558326
5.58,4,0.868180384736676,0.308247118544064,-0.167760246589557,0.487146621092359,0.110232856227302,-0.126743369853816,0.0929288613544114,-0.183975747957803,0.00271614734336375,-0.00794498530025127,1.33461511073133,0.086835332295704,0.772372610655029,-0.0955941445153152,-0.168167160049237,-0.128167566962696,0.424858343251849
5.61,4,0.968047120578631,0.341146071759189,-0.186244290495519,0.511622465692109,0.0713522751548814,-0.109622486037782,0.116285693940041,-0.183080538346507,-0.00603249203975545,-0.0137638477736747,1.37127801344849,0.0992156743064669,0.855118462680949,-0.112684509821874,-0.187383648182623,-0.120456556901761,0.333455407371237
5.64,4,1.06762901699881,0.340739158299509,-0.189692882066307,0.511917477950377,-0.0101321451460311,-0.0925931577501755,0.121087272764265,-0.133518478957488,0.0471510971404157,-0.0725119785149693,1.165288247322,-0.0136214280627867,0.931719921465702,-0.135685293130284,-0.191361227250994,-0.0905789361247597,0.191320535905026
5.67,4,1.15202286853643,0.290149642424797,-0.118483026622313,0.50445061596525,-0.0283211767937254,-0.0526851201920632,0.182775353251747,-0.0673950417594938,0.00637836848048341,-0.166366567990153,0.710592974639119,-0.0961739961953592,0.988046917121901,-0.163741976175217,-0.100761945453251,-0.0401318399609363,0.0670288196457818
5.7,4,1.23925494145533,0.30685343994466,-0.0413729260129602,0.499221778008362,-0.000752789900407931,-0.00224819686473179,0.115960163172297,-0.235653757337158,-0.0116885891293069,-0.23790195420189,0.349050365713472,-0.203751742098249,1.01930804366181,-0.219712922554196,-0.0513728242845953,-0.0100507624540951,0.0170598467970824
5.73,4,1.28071942299671,0.158828496149581,-0.0414746543778802,0.492207607247129,-0.010905280719423,-0.00348928291675568,-0.0619830927457503,-0.120171717479985,-0.0160832544938505,-0.17388429415774,-0.329264198736534,-0.0132399466943368,1.01929787082532,-0.2611570584226,-0.0417696666361482,-0.00454725791192358,0.00482192449720756
5.76,4,1.27758110293893,0.00584938098289946,-0.02226325266274,0.485381633960997,-0.00754315825881731,-0.00164291309345785,-0.0733970152897732,-0.139032156336151,-0.0211493270668661,0.17279071423485,-0.907335632394381,0.0664489679657379,0.952538631346578,-0.324788150680054,-0.0146437981302327,-0.00422172714417961,0.00229906104719179
5.79,4,1.26125370036927,-0.0444146041240679,-0.0344960885443688,0.481429486983856,-0.00424207281716361,-0.0354370759198787,-0.0441806288847519,-0.152195806756798,0.00639871415346741,0.178345082959482,-1.34994048890652,0.10577206742556,0.818130029196041,-0.442894782352163,-0.0621000803654083,-0.133691417177852,0.00174464145837784
5.82,4,1.19925534836879,-0.202429273354289,-0.0905891089612517,0.419059826451409,-0.304732403536078,-0.113340657775608,-0.21317178868984,-0.0717897071240374,0.0197658213039542,0.0997955259865108,-1.98508662170273,0.00906908373261717,0.639189835301777,-0.559841710664184,-0.0952787865840632,-0.146010722169663,0.00167851802117985
5.85,4,1.08757286294137,-0.37224443291523,-0.0523290709148432,0.279717398602252,-0.481571906694744,0.00941496017334514,-0.103773105054882,-0.152887559638254,0.0178533280434584,0.054185613574633,-2.72127445295572,-0.287255470442824,0.492014323353781,-0.595339823603015,-0.0534073915829951,0.0135705638803268,0.00167851802117985
5.88,4,0.949786879075493,-0.463952553890601,-0.0264493748791976,0.163528346608885,-0.363775546535641,0.0268613747571235,-0.0173853775648264,-0.149245684174118,0.0245267087822097,-0.0720389416180914,-2.95520900092573,-0.21444339325134,0.318501337727999,-0.631051566108178,-0.0243639433983378,0.0423495183161921,0.00167851802117985
5.91,4,0.796054974008403,-0.513636687317525,-0.00531530706706951,0.0908179977823216,-0.212449517298908,0.0279498682617674,0.0863572089805801,-0.254066591387677,0.00363170262764367,-0.0704977568895535,-3.01441490930916,-0.0803603218685466,0.120904161707409,-0.674916837061678,-0.000178024638609984,0.0314442375967691,0.00167851802117985
5.94,4,0.625680308440402,-0.561489710175888,0.0241452274137598,0.0579444766584267,-0.0842209133172603,0.0163172297331665,0.160659606718141,-0.301024404634744,-0.0143945636361787,-0.0630410677409182,-2.66060874253568,0.0179041922259184,-0.0481938128808456,-0.673777479374574,0.0244911038544877,0.00297046825566373,0.00167851802117985
5.97,4,0.464008504491307,-0.539480778425448,0.0386110009053824,0.0528021078117211,-0.00582394889166946,-0.00254829554124577,0.163446963916949,-0.311421043529567,-0.0120751569160029,-0.00990325632496109,-2.25162002421135,0.239921262245552,-0.195404929756564,-0.659342224392427,0.0395469018626464,-0.0239621163569038,0.00167851802117985
6,4,0.323007904293954,-0.473047069714448,0.0404421114739423,0.0514135156305633,-0.00849431847081922,-0.0166783654286325,0.137546922208319,-0.253435875525173,-0.0150049338256986,-0.0165257728812525,-1.79022085228024,0.269554734946745,-0.315464746035137,-0.638365835545925,0.0441297647022919,-0.0252337209184037,0.00167851802117985
6.03,4,0.211340678121281,-0.377605517746513,0.0384736676127405,0.0444705547247739,-0.0285348063600574,-0.0189418215481023,0.137445193843399,-0.232439141005687,-0.0163680939156265,0.02157658619953,-1.34014913378297,0.313038524531795,-0.409339681183304,-0.620598976612649,0.0404777164016643,-0.0148319956053346,0.00167851802117985
6.06,4,0.127135024058758,-0.287296161788792,0.0341400392671489,0.0353912981556647,-0.0303862626016012,-0.0135095268613748,0.117587817011017,-0.178502761925108,-0.010752688172043,0.0617033397422203,-0.948525447350485,0.183431501205481,-0.477538377025666,-0.60460219122898,0.0346385082552568,-0.00748720765811131,0.00167851802117985
6.09,4,0.0660929186885179,-0.208232876572975,0.0283873002309234,0.0300607318338572,-0.0160374767296365,-0.011139255958739,0.105217647836746,-0.144240648620055,-0.0054424675232195,0.121056754254789,-0.499023407696768,0.0121361939349549,-0.51809238970102,-0.584149703461816,0.0280465102084414,-0.0100863673818171,0.00167851802117985
6.12,4,0.0271462141788995,-0.134881639047416,0.02152572201707,0.0254829554124577,-0.0156559953611866,-0.0097913551235491,0.0803552354503006,-0.138218329416791,0.0134383170059308,0.137490971607613,-0.159728792179123,-0.0660267952513199,-0.462045147048351,-0.489104892117069,0.0201676483453881,-0.00798567664621926,0.00167851802117985
6.15,4,0.00574765261797947,-0.0742820520645772,0.0145064648375907,0.021876684876044,-0.0103101697846411,-0.00843836787011322,0.065624968209886,-0.158401237016917,0.0206203395692821,0.0641855118462681,0.192759992268644,-0.086748863185522,-0.416216518651896,-0.421903134250923,0.0125176753034048,-0.00691244239631336,0.00167851802117985
6.18,4,8.13826919359925e-05,-0.0227668080690939,0.00816370128482925,0.0192775251523382,-0.00811792352061525,-0.00803654082867926,0.0245877458011617,-0.158991261533453,0.0134993540248828,0.0384482355215105,0.491154718670207,-0.136239712719097,-0.357254758344269,-0.357163202815841,0.00440483820103559,-0.00722271390931934,0.00167851802117985
6.21,4,7.12098554439934e-05,-0.00285856705425174,0.0010681478316599,0.0166173284096805,-0.00746177556688131,-0.00384533219397565,-0.00890123193049918,-0.153457238481806,0.00940987375509914,0.0504572690003154,0.65691091647084,-0.153853979104994,-0.275475325785089,-0.275378683838415,0.000640888698995941,-0.00570187485376547,0.00167851802117985
6.24,4,0.0033010854416537,0.00360118411816767,0.000376394950203965,0.0143538722902107,-0.0076550594602293,-0.00250760419527777,-0.0445061596524959,-0.154372793766086,0.0173446862188584,0.0474562822351756,0.771029796238085,-0.0675018565426598,-0.209153518275501,-0.21238339386171,-0.000203456729839981,-0.00466424553158157,0.00167851802117985
6.27,4,0.0121158482619709,0.0152490819015066,-0.0011139255958739,0.0137638477736747,-0.00120548112430189,-0.00386567786695964,-0.0767540513321329,-0.150812300993886,0.0208034506261381,-0.0121870581174149,0.580777408164719,0.0395672475356304,-0.1708833073926,-0.182912686544389,-0.00293994974618773,-0.00715150405387534,0.00167851802117985
6.3,4,0.0226650797041739,0.0230109561449019,-0.00401827041433963,0.0115970336008789,-0.00635293638925342,-0.00198878953418582,-0.075879187393821,-0.162938322092349,0.011240984323659,-0.0413017161575162,0.597384563737907,0.02203436384167,-0.135629342529578,-0.158207953123569,-0.00526952930285552,-0.00315357931251971,0.00167851802117985
6.33,4,0.0338501134271269,0.0279040904975534,-0.00604266487624744,0.010605182042909,-0.00585446740114546,-0.00302133243812372,-0.0815759758293405,-0.17134108503474,-0.00119022186956389,-0.032461521245969,0.522817672251554,-0.0482090721355836,-0.102659179459009,-0.136417737357707,-0.00737530645669932,-0.00395214697714164,0.00167851802117985
6.36,4,0.0404777164016643,0.0152490819015066,-0.00670389924822738,0.00905891089612517,-0.00167343160293385,-0.000946073793755913,-0.0857061474450921,-0.167048148035117,-0.00920641702525915,-0.00582903530991546,0.442538733074943,-0.0240892768130538,-0.0734733115634632,-0.113828953927224,-0.00635293638925342,-0.00304676452935372,0.00167851802117985
6.39,4,0.043717764824366,0.00440483820103559,-0.00586972665588346,0.00910977507858516,0.000152592547379986,-0.00299590034689372,-0.075940224412773,-0.166580197556485,-0.0144962920010987,-0.011210465814183,0.413622445346436,0.128437147129734,-0.0481938128808456,-0.0917945900855535,-0.00489822077089755,-0.00464898627684357,0.00167851802117985
6.42,4,0.0452436902981658,0.000305185094759972,-0.00459303567613758,0.00791446679077527,-0.00645466475417341,-0.00248217210404777,-0.0966521195104831,-0.184484389782403,0.011302021342611,-0.0966724651834671,0.34896389660329,0.323943805251218,-0.0246894741660817,-0.0698060040080976,-0.00411999877925962,-0.00209051789910581,0.00167851802117985
6.45,4,0.0444349497970519,-0.00593076367483545,-0.00414543087048962,0.00273649301634775,-0.0225989562669759,0.00130720948922188,-0.328674174219998,-0.332824691508733,0.119968260750145,-0.177358317819758,0.182236192917671,0.180399995930865,-0.0129347615995768,-0.0572476373587247,-0.0032146163314717,0.00303150527461572,0.150619017100538
6.48,4,0.0580614642780847,0.0421409751681061,-0.0064750104271574,-0.0296538183741773,-0.126931567328918,0.0223649810276599,-0.0180771304462823,-0.143670969776503,0.0260729799289936,0.00589515874711346,0.463845739107435,0.193258461256752,0.00955737988423312,-0.0483108005005036,-0.0166173284096805,0.0497858617918434,0.50188197475102
6.51,4,0.0993631804356009,0.12689087598295,-0.0613676361379844,-0.0607420066937264,-0.076041952777693,0.0426190984832301,0.0241604866684978,-0.253232418795333,-0.0167750073753065,0.0457116407767978,0.695532090212714,0.0968708354950611,0.0454013692637918,-0.0537329223507391,-0.0659962767418439,0.0446638386181219,0.716742454298532
6.54,4,0.137099317402671,0.121168655456201,-0.0670440789005198,-0.0479089734590696,0.0682088686788537,0.00693278806929736,0.00898261462243517,-0.167048148035117,0.00637836848048341,-0.0138859218115787,0.600909451582385,-0.0338806319366029,0.0840632343516343,-0.0528224534847051,-0.0678223008921578,-0.00988799707022309,0.818618325347657
6.57,4,0.165257728812525,0.0910214545121616,-0.0517136143070772,-0.0143742179631947,0.107913449507126,-0.0181483403017263,-0.00143436994537187,-0.159540594704021,0.00639871415346741,-0.00745668914863531,0.488814966277047,-0.00490330718914355,0.116728212327443,-0.0483108005005036,-0.0519933673106072,-0.0358541622160507,0.75830866420484
6.6,4,0.182897427289651,0.0561998352000488,-0.0384634947762485,0.00807723217464726,0.0577715384380627,-0.0255745109408856,-0.00741599780266732,-0.157160150964894,-0.0022278511917478,-0.00525427004811752,0.372157963805048,0.0161137730033265,0.142384105960265,-0.0402742596718243,-0.0339365825373089,-0.0240943632312998,0.631255022838018
6.63,4,0.192007202368236,0.0292011271502833,-0.0226040426852219,0.0164240445163325,0.0186569821263263,-0.0176956490778324,-0.00043743196915596,-0.159499903358053,0.00157678965625985,-0.00902839238664917,0.328394421216468,0.0141707612333547,0.162577186396883,-0.0291960407320373,-0.0180110070090843,-0.00949634286528113,0.566021708833074
6.66,4,0.203110853399253,0.0373953469445886,-0.0168258715577665,0.0312306080304371,0.0574307484155807,-0.0163223161514125,0.010650959807123,-0.153396201462854,0.00601214636677145,-0.0101880957467371,0.426023133030183,0.00537125766777551,0.184830266223131,-0.0180720440280363,-0.0189469079663483,-0.0225582649210079,0.553559984130375
6.69,4,0.223792229987487,0.0697398805708996,-0.0300607318338572,0.0601723278501745,0.105044709616382,-0.032537817519659,0.0119734285510829,-0.151483708202358,0.000417086296171962,-0.0246742149113437,0.534023051647491,-0.00277209794406974,0.213583788567766,-0.0100049846898811,-0.0358795943072807,-0.0458947518336538,0.547893714204332
6.72,4,0.253323974323761,0.0991342916145309,-0.0517187007253232,0.0920234789066235,0.0995005137282428,-0.0497248247728914,-0.00749738049460331,-0.165420494196397,-0.00224819686473179,-0.032553076774397,0.596352020833969,-0.00262459181493576,0.247484766177353,-0.00558488723410749,-0.0526546016825872,-0.0528885769219031,0.548844874416334
6.75,4,0.28751487777337,0.113132114627522,-0.0610980559709464,0.118594927823725,0.0859502955209001,-0.0518407747632272,0.021230709758802,-0.161758273059277,0.00491348002563555,-0.0345062613808608,0.618498285877051,-0.0117292804752749,0.283934039328186,-0.00338755455183569,-0.0614744509211503,-0.0511185033722953,0.558183538315989
6.78,4,0.326059755241554,0.128014974415316,-0.0694703004038616,0.148716696676534,0.101575772372611,-0.0630817590868862,0.0292875962604653,-0.151910967335022,0.0054831588691875,-0.0388500625629444,0.649271116265348,-0.0054322946867275,0.32197027497177,-0.00384533219397565,-0.0693482263659576,-0.0618915372173223,0.564765363526312
6.81,4,0.367829421877702,0.140781884212775,-0.076408174891405,0.183863846756391,0.117394533117669,-0.0715862503941974,0.0278633991515854,-0.163996297087517,0.000885036774803919,-0.0303455712556332,0.695598213649912,0.00580868963693147,0.362285225989563,-0.00530004781233151,-0.0769676808984649,-0.0738344472589292,0.569678843551948
6.84,4,0.412528865423546,0.15139215267393,-0.0826339508245084,0.217668182419304,0.111056855983154,-0.0786055075736768,0.0389314452548804,-0.162816248054445,0.00841293577888323,-0.0211188085573901,0.78484450819422,0.0244351532537818,0.406496373383791,-0.00582903530991546,-0.0819828892890204,-0.0783511866613768,0.575314594968515
6.87,4,0.464817244992421,0.175481429486984,-0.0949227373068433,0.254758344269133,0.125817641733044,-0.0892056031983398,0.0511795403912473,-0.147963906776126,0.00259407330545976,-0.0349640390230008,0.874416333506272,0.0173446862188584,0.456953642384106,-0.0075991088595233,-0.0956043173518072,-0.0898058005513677,0.564490696941028
6.9,4,0.520350759402244,0.187851598661255,-0.10325429039379,0.294778283028657,0.129947813348796,-0.0990630817590869,0.054312774030783,-0.160659606718141,0.00300098676513972,-0.054394156722719,0.914792321543016,0.0150761436811426,0.510422070986053,-0.00969471317687511,-0.102684611550239,-0.0986968596453749,0.553249712617369
6.93,4,0.583697012237922,0.214077171137628,-0.116234829757581,0.335561184525081,0.138340403454695,-0.105726289661346,0.0598467970824305,-0.173151849930316,0.00576799829096347,-0.0380565813165685,1.03329569383831,0.0616982533239743,0.568966744997508,-0.0144657734916227,-0.116326385286009,-0.109286782433546,0.547135837885678
6.96,4,0.655832595802688,0.242693360189622,-0.132582578000224,0.375133518478957,0.130843022960092,-0.114749595629749,0.0790531123793247,-0.148370820235806,0.0167546617023225,-0.0637429934588661,1.09874772382783,0.076265755180517,0.633676157923114,-0.021922462640258,-0.133050528478856,-0.11378317616301,0.528926460564999
6.99,4,0.732240770694093,0.259905799534084,-0.141768649352499,0.416882839442122,0.143426821700695,-0.124200160730817,0.0855230363882361,-0.155247657704398,0.00601214636677145,-0.0713726208278654,1.17662078717409,0.0481582079531236,0.701366211940875,-0.0306609291868852,-0.142908007039603,-0.12533951841792,0.493647063610747
7.02,4,0.812341685232093,0.273303425194047,-0.14986622720013,0.456536556087934,0.126244900865708,-0.127099419131036,0.086906542151148,-0.144220302947071,0.0075991088595233,-0.0747093111972411,1.23881750948617,0.0766624958037049,0.774315622425001,-0.0377615690583005,-0.150852992339854,-0.129195023448388,0.427147231462549
7.05,4,0.896755882442701,0.288277840510269,-0.159052298552405,0.488794620604063,0.104536067791782,-0.122409741508225,0.0964283171076591,-0.188818018127995,0.00857570116275521,-0.0169682912686544,1.3477482426425,0.113864558854946,0.85171056245613,-0.0448011719107639,-0.158584348073773,-0.126061789808852,0.388205613371176
7.08,4,0.990030620237841,0.318216498306223,-0.173955504013184,0.510289824111657,0.0609963276060264,-0.107974486526078,0.115553249712617,-0.193741670990122,-0.00749738049460331,0.022125919370098,1.40067751091037,0.181147699413027,0.935280414237902,-0.054516230760623,-0.175420392468032,-0.116743471582181,0.319610176905627
7.11,4,1.08182012390515,0.314737388225959,-0.176437676117232,0.509659108249153,-0.0149438968067466,-0.0884629861344239,0.11164688049969,-0.138604897203487,0.0642414624469741,-0.140364797916603,1.21022166610716,-0.0223904131188899,1.01467940305795,-0.0669270912808618,-0.177719453515224,-0.0891954303618478,0.190181178217923
7.14,4,1.15870642211168,0.264219082206692,-0.106947030040386,0.493728446302683,-0.0639362773522141,-0.0554317860449029,0.142165389975687,-0.0749229407635731,0.0314849289427371,-0.323811558376822,0.773125400555437,-0.271431623279519,1.07346822514522,-0.0849838760541602,-0.0910875779493596,-0.0269478438673055,0.0623391420229703
7.17,4,1.24093345947651,0.289488408052817,-0.032970163070569,0.465407269508957,-0.0885443688263599,-0.010864589373455,0.11103651031017,-0.263323872595396,-0.00208543148085981,-0.35132908108768,0.47758415478988,-0.357320881781467,1.1115044607888,-0.12920519628488,-0.0453098137353638,0.0293893246253853,0.0156966867071546
7.2,4,1.28869492680644,0.174433627328308,-0.0414746543778802,0.440850042217271,-0.0592364268929105,0.0119123915321309,-0.0726442253893653,-0.12615334533728,-0.0496129235714794,-0.173131504257332,-0.287148655659658,-0.199397768079674,1.11632638528601,-0.172083702098656,-0.0424003824986521,0.0271716462701295,0.00452691223893958
7.23,4,1.28955961790826,0.0180974761192663,-0.0225735241757459,0.431521551154108,-0.0065614795373394,0.0162155013682465,-0.0493280841497035,-0.139459415468815,-0.043265073600472,0.19546088035727,-0.921262245551927,-0.0421460615863521,1.0537837865332,-0.23556220180873,-0.0163070568966745,0.011383404034547,0.0021973326822718
7.26,4,1.27750480666524,-0.0270393993957335,-0.0362966806034527,0.427950885545417,-0.000478123315123956,-0.00602231920326345,-0.0254422640664897,-0.15703807692699,-0.010630614134139,0.366578162989186,-1.36473687958413,0.000274666585283975,0.845901872819198,-0.431368958606728,-0.0614744509211503,-0.104180018514562,0.00172938220363984
7.29,4,1.21455529445275,-0.201239051484725,-0.0918200221767835,0.377992085533209,-0.251706493321533,-0.118900112918485,-0.137546922208319,-0.0838750368765323,0.00556454156112349,0.318053732922351,-1.90694906460768,0.00847397279783522,0.642638426872565,-0.571662546667887,-0.098055970946379,-0.140924303923663,0.00167851802117985
7.32,4,1.09831029185868,-0.386567786695964,-0.0517899105807672,0.249478642129785,-0.454217149367758,0.00732444227423933,-0.158747113457645,-0.043061616870632,-0.00749738049460331,0.196234015930662,-2.76940214239937,-0.229427981404055,0.470330922371085,-0.627765739921262,-0.0515457625049593,0.0193182164983062,0.00167851802117985
7.35,4,0.962879319640695,-0.457859024831894,-0.0281685842463454,0.140181686859747,-0.337575406150497,0.0298776207770012,-0.0305693736584572,-0.186132389294107,0.0189113030386263,0.0267749056469415,-2.9730419832962,-0.167994221828873,0.298053936379081,-0.664611753695283,-0.0267749056469415,0.0472426526688437,0.00167851802117985
7.38,4,0.809055859045178,-0.514094464959665,-0.00693787448754336,0.075614693645029,-0.184291105889055,0.0291451765495773,0.076082644123661,-0.267108167770419,0.0201320434176662,-0.0616473891415143,-3.0831527654856,-0.255246640420749,0.113691620634582,-0.695160781680756,-0.00155644398327586,0.0297657195755893,0.00167851802117985
7.41,4,0.638955860062461,-0.562944425794244,0.0245267087822097,0.0520442314930672,-0.0563880326751508,0.00616473891415143,0.143833735160375,-0.330179754020814,-1.01728364919991e-05,-0.0854416536963001,-2.78481398968474,-0.274371573025707,-0.0618203273618783,-0.700654113386436,0.0237128818628498,-0.00455743074841558,0.00167851802117985
7.44,4,0.476404105756808,-0.54322946867275,0.0371105075228126,0.0460219122898038,-0.0135298725343588,-0.00640888698995941,0.135939614042583,-0.333516444390189,-0.00135298725343588,-0.120171717479985,-2.38150171412295,-0.256650491856644,-0.21642709636728,-0.692729473759168,0.0386669515060884,-0.0180466119368063,0.00167851802117985
7.47,4,0.336273283079521,-0.470412305063021,0.0388398897264524,0.0444654683065279,-0.00715150405387534,-0.0145980203660187,0.132073936175624,-0.306741538743248,-0.0122175766268909,-0.0635395367290262,-1.90233059684032,-0.0685343994465977,-0.344177577033804,-0.680359304584897,0.0423902096621601,-0.02142399365215,0.00167851802117985
7.5,4,0.226365957619963,-0.372946358633178,0.0366629027171646,0.0405489262571083,-0.0147404400769066,-0.0167750073753065,0.130771813104648,-0.252174443800165,-0.0148625141148106,-0.0635395367290262,-1.45656707459741,0.124444308806625,-0.445122633543911,-0.671397035635446,0.0385550503046765,-0.0166834518468785,0.00167851802117985
7.53,4,0.144433932513403,-0.279162979013438,0.0319121880754011,0.0369477421389406,-0.00926745404421115,-0.0157577237261066,0.116977446821497,-0.207495345927305,-0.0168563900672424,-0.0154830571408226,-1.08499404889065,0.308613340657776,-0.520065919980468,-0.664418469801935,0.0316375214901171,-0.0156966867071546,0.00167851802117985
7.56,4,0.0840276294239123,-0.207139296650085,0.0254829554124577,0.0347707551296528,-0.0076499730419833,-0.0165817234819585,0.117425051627145,-0.190079449853002,-0.0176295256406344,0.0189316487116103,-0.645090080467137,0.366934212266406,-0.570675781528163,-0.654591509750664,0.0256050294503616,-0.0156559953611866,0.00167851802117985
7.59,4,0.0401216671244443,-0.150741091138442,0.02122053692231,0.0347911008026368,0.000132246874395988,-0.0165105136265145,0.087109998880988,-0.15602079327779,-0.0129500208543148,0.0567339091158788,-0.300586972665588,0.300831120741396,-0.597674489577929,-0.637765638192897,0.0208441419721061,-0.0183111056855983,0.00167851802117985
7.62,4,0.00921658986175115,-0.10696737571337,0.0176447848953724,0.0339772738832769,-0.00564083783481348,-0.0176854762413404,0.0799890133365886,-0.146417635629343,-0.00021362956633198,0.0669525233720918,0.011230811487167,0.167277036856187,-0.575899533066805,-0.585044913073112,0.0171819208349864,-0.0168055258847825,0.00167851802117985
7.65,4,-0.00749229407635731,-0.0611387473169144,0.0131433047476628,0.0313984598325551,-0.00933357748140914,-0.0154016744488866,0.0626951913001902,-0.145786919766839,0.00192266609698782,0.075752026937671,0.267830439161351,0.0402233954893643,-0.443413597013255,-0.435733105461796,0.011327453433841,-0.0131026134016948,0.00167851802117985
7.68,4,-0.0169377727591784,-0.032853175450911,0.00903347880489517,0.0249031037324137,-0.0243079927976318,-0.010371206803593,0.0592364268929105,-0.160781680756045,0.00234992522965178,0.0380260628070925,0.485539312926623,-0.0536311939858191,-0.365179397971536,-0.348043254900764,0.00739565212968332,-0.00522375153864152,0.00167851802117985
7.71,4,-0.0258695231991536,-0.0306660156051312,0.00686157821385337,0.0197759941404462,-0.0145115512558367,-0.00233466597491379,-0.455061494796594,-0.193436485895362,0.0578529211299987,-0.124342580441705,0.06503494369335,-0.0583513901181066,-0.345718761762342,-0.319630522578611,0.00629698578854742,-0.00458286283964558,0.033071891435489
7.74,2,-0.0580818099510687,-0.106519770907722,0.0151371807000946,0.00409456668802962,-0.0688090660318817,0.00395723339538764,0.00448622089297159,-0.215633615120904,0.0353099154637288,-0.022217474898526,0.0806044699443546,0.0672322763756218,-0.344345428835922,-0.286034730063784,0.022181869970804,0.0156153040152186,0.160644347463403
7.77,2,-0.0690633869441817,-0.04343292540259,0.021317178868984,-0.0349284340952788,-0.131051566108178,0.0409151483708202,-0.106845301675466,-0.136977243364767,0.0134383170059308,0.0117954039124729,0.211727245907977,0.207312234870449,-0.336273283079521,-0.267006439405499,0.0197963398134302,0.0558539587593209,0.266579180272836
7.8,2,-0.0589363282163966,0.0286517939797154,0.000925728120771915,-0.065767387920774,-0.0910468866033916,0.0462050233466597,-0.0282906582842494,-0.175959552802108,-0.011159601631723,-0.032670064394055,0.287270729697562,0.3078198594114,-0.319447411521755,-0.260282194484288,-0.0130619220557268,0.0454166285185298,0.34504735455387
7.83,2,-0.064917956073692,-0.0188807845291503,-0.00133264158045188,-0.0920743430890835,-0.0816726177760145,0.0449486780398979,-0.065665659555854,-0.167292296110925,-0.0210475987019461,0.0234636473687958,0.265689057079786,0.0246436964018677,-0.304788354136784,-0.239677114169744,0.00678528194016338,0.0462508011108737,0.421221554205959
7.86,2,-0.0658385977762179,-0.00403861608732363,0.0163680939156265,-0.114118879767245,-0.0686106957202877,0.0475529241818496,-0.0583005259356466,-0.149774671671702,-0.00251269061352377,0.0240994496495458,0.302763959674876,0.010991749829605,-0.2986643065686,-0.232591733553067,0.0233975239315978,0.0510218614256213,0.473509933774834
7.89,2,-0.0554063539536729,0.0335601875871049,0.0236823633533738,-0.129952899767042,-0.0444858139795119,0.0502131209245074,-0.0588091677602466,-0.158950570187485,-0.00359101128167567,0.0164291309345785,0.349945575324768,0.115253151036103,-0.279127374085716,-0.223502304147465,0.0173599454735964,0.0492212693665375,0.51865189570808
7.92,2,-0.0565762301502528,-0.000269580167037975,0.0254982146671957,-0.141549933367921,-0.0357880387788527,0.0453759371725618,-0.0368561866105126,-0.156692200486262,-0.0132348602760908,0.0236467584256518,0.283415224667094,0.0905535040335297,-0.257194738608966,-0.200379446801152,0.032664977975809,0.0451267026785078,0.581143630278431
7.95,2,-0.0579546494949187,-0.00170395011240984,0.0378022604042685,-0.154154077781508,-0.0424715923540961,0.0484633930478835,-0.0564490696941028,-0.148024943795078,-0.00959298481195512,0.00312306080304371,0.284147668894518,0.0611234880621764,-0.251386048972035,-0.193187251401308,0.0366679891354106,0.0497299111911374,0.647963906776126
7.98,2,-0.0584887234107486,0.00011190120141199,0.0356812239956867,-0.166803999959309,-0.0399385560675883,0.0514338613035473,-0.0489211706900235,-0.156366669718518,-0.00609352905870744,0.0240689311400698,0.280042929369996,0.0556606748659729,-0.23825800347911,-0.179575996175013,0.0357066560869167,0.0523036388236132,0.722846156193731
8.01,2,-0.0589058097069206,0.000152592547379986,0.0356913968321787,-0.173950417594938,-0.0132806380403048,0.0451826532792138,-0.0345367798903368,-0.169021678314564,-0.00886054058453118,0.0394146549882504,0.277438683228044,0.0281126336456394,-0.224255094047873,-0.165115309101637,0.0358439893795587,0.0413576667582222,0.815591906491287
8.04,2,-0.0594144515315205,0.000152592547379986,0.0362000386567787,-0.174321726126896,0.000447604805647959,0.0331532741274249,-0.0367748039185766,-0.162104149500005,-0.0098167872147791,0.0507319355855993,0.269839574368521,0.022115746533606,-0.208232876572975,-0.148589536220384,0.0361644337290567,0.0313832005778171,0.91570279040905
8.07,2,-0.0599230933561205,0.000152592547379986,0.0364391003143406,-0.168101036612039,0.0288755963825393,0.0264697205521816,-0.033010854416537,-0.160578224026205,-0.0124617247026989,0.0378073468225145,0.266121402630696,0.0175532293669444,-0.190969573046052,-0.1308328501236,0.0365916928617206,0.0176091799676504,0.996841334269234
8.1,2,-0.0603808709982604,0.000152592547379986,0.0367341125726086,-0.157328002767012,0.032278410189113,0.0155695262510046,-0.0424715923540961,-0.159459212012085,-0.0148014770958586,0.0139927365947447,0.251304666280099,0.0127262184514908,-0.179286070334991,-0.118701742606891,0.0367748039185766,0.00983713288776309,1.03735465559862
8.13,2,-0.0608386486404004,0.000152592547379986,0.0369731742301706,-0.14823857336141,0.0271004364146855,0.0130161442915128,-0.0373241370891446,-0.158319854324981,-0.0151066621906186,-0.0188960437838883,0.245948667867061,-0.000503555406353954,-0.170791751864172,-0.10971404156621,0.0372173223059786,0.0131127862381868,1.04979094821009
8.16,2,-0.0612353892635884,0.000152592547379986,0.0372122358877326,-0.135471663563952,0.0418459629098381,0.00879950356557919,-0.0358999399802647,-0.159377829320149,-0.010406811731315,-0.0274768313648895,0.256289356161178,-0.00534582557654551,-0.160542619098483,-0.0990732545955789,0.0372783593249306,0.00348928291675568,1.04592527034313
8.19,2,-0.0615965249590543,0.000152592547379986,0.0375988036744285,-0.120634581540371,0.0443383078503779,-0.00130212307097588,-0.0342112491225929,-0.15652943510239,-0.011179947304707,-0.0318257189652191,0.271914833012889,-0.0115766879278949,-0.14999338765628,-0.0882035788038779,0.0376903592028565,-0.0021261228268278,1.03921628467666
8.22,2,-0.0618762779625843,0.000152592547379986,0.0376903592028565,-0.106519770907722,0.0460320851262958,-0.00134281441694388,-0.0278837448245694,-0.157994323557237,-0.00951160212001912,-0.0338501134271269,0.289167963703319,-0.0127313048697368,-0.137816502375357,-0.075711335591703,0.0376903592028565,-0.00371817173782566,1.04117455570137
8.25,2,-0.0619525742362743,0.000152592547379986,0.0376649271116265,-0.0900041708629617,0.0507827997680593,-0.00590024516535946,-0.0305083366395052,-0.160395112969349,-0.00896226894945118,-0.0312560401216671,0.3037507248146,-0.0115766879278949,-0.124393444624165,-0.0622119815668203,0.0376903592028565,-0.011068046103295,1.03975544501073
8.28,2,-0.0619525742362743,0.000152592547379986,0.0377361369670705,-0.0730053610848313,0.0559912920519628,-0.00959807123020112,-0.0203151544745221,-0.158747113457645,-0.00853500981678721,-0.0312916450493891,0.320942818486078,-0.010722169662567,-0.107389548427788,-0.0452182582069358,0.0376903592028565,-0.0152694275744906,1.03696300139368
8.31,2,-0.0618254137801243,0.000152592547379986,0.0378226060772525,-0.0550401318399609,0.0528122806482131,-0.0152796004109826,-0.0249132765689057,-0.160557878353221,-0.00945056510106713,-0.0382905565558845,0.327300841293578,-0.0124566382844529,-0.0920387381613615,-0.0299691763054292,0.0376903592028565,-0.0188248339284443,1.03992329681285
8.34,2,-0.0617236854152043,0.000152592547379986,0.0376750999481185,-0.0383414207383445,0.0485600349945575,-0.0158797977640105,-0.0170395011240984,-0.160212001912493,-0.00886054058453118,-0.0509506515701773,0.342743207088432,-0.0134688355154068,-0.0782494582964568,-0.0163375754061505,0.0376903592028565,-0.0158950570187485,1.04506057924131
8.37,2,-0.0597043773715425,0.00665812148401339,0.0352844833724988,-0.0159916989654225,0.075950397249265,-0.0235399436424858,-0.0165308592994985,-0.163528346608885,-0.010935799228899,-0.0618559322896003,0.391720328379162,-0.0118310088401949,-0.0580716371145767,0.00170903653065584,0.0338958911913409,-0.0338551998453729,1.04786319569486
8.4,2,-0.054134749392173,0.0176600441501104,0.0282347076835434,0.00520849228390352,0.0628376110110782,-0.0341451256853949,-0.0208034506261381,-0.163324889879045,-0.00920641702525915,-0.0742769656463312,0.446358633177689,-0.0293435468611713,-0.0352132735170548,0.0189825128940703,0.0258746096173996,-0.0361796929837947,1.05654571164078
8.43,2,-0.0441857153029979,0.032710755740023,0.0176702169866024,0.0255745109408856,0.0674967701244138,-0.0405031484928943,-0.00625629444257942,-0.161798964405245,-0.00707012136193935,-0.0929492070273954,0.533422854294463,-0.0454929247922198,-0.00600197353027945,0.0382854701376385,0.0119836013875749,-0.0448011719107639,1.05031484928943
8.46,2,-0.0341858170313629,0.0295622628457493,0.00768557796970529,0.0520747500025432,0.0894700969471318,-0.0705231889807835,-0.0160222174748985,-0.165379802850429,-0.00475071464176356,-0.0906857509079257,0.727647735017955,-0.0393841364787744,0.0315001881974751,0.0658894619586779,0.00565101067130548,-0.0723288674581133,1.04292428357799
8.49,2,-0.0158035014903205,0.0476800846379996,0.000986765139723909,0.0830866420484024,0.101001007110813,-0.098193304239021,0.0281482385733614,-0.150303659169286,-0.00125125888851588,-0.111758781701102,0.766085797702974,-0.0610573646249784,0.0780409151483708,0.0940733054597613,-0.00719728181808934,-0.101972512995799,1.01160720643737
8.52,2,0.0254320912299977,0.118427076021607,-0.0571153904843287,0.112786238186794,0.0912249112420016,-0.120344655700349,-0.00468967762281157,-0.179662465285195,-0.0102033550014751,-0.12544124678284,0.835149184647155,-0.0700704977568896,0.125888851588488,0.100568661559903,-0.0709402752769555,-0.125883765170242,0.969313638721885
8.55,2,0.054450107323425,0.0829543951740064,-0.0751416567481511,0.135074922940764,0.0606911425112664,-0.140756452121545,0.0308338674072492,-0.169448937447228,0.0196640929390342,-0.146610919522691,0.686854660685039,-0.123223568427585,0.171452986236152,0.117084261604663,-0.0746838791060111,-0.145273191523993,0.893526006856492
8.58,2,0.0803399761955626,0.0738853114413892,-0.0825830866420484,0.146326080100915,0.021841079948322,-0.143024994659261,0.0211493270668661,-0.198685669525234,0.00715150405387534,-0.144098228909167,0.619973347168391,-0.210460727764723,0.210114851323995,0.129856257820368,-0.0820846176539405,-0.144088056072675,0.819839065726697
8.61,2,0.109541103345846,0.0891649118523718,-0.054678996144495,0.147455264951526,-0.010762861008535,-0.146295561591439,0.0172836491999064,-0.208268481500697,0.0115461694184189,-0.144698426262195,0.598386588132369,-0.261797947121596,0.245195877966653,0.135725984476252,-0.0444959868160039,-0.157485681732637,0.675222022156438
8.64,2,0.163843704540137,0.173202714112776,-0.0246996470025737,0.127058727785068,-0.0961638233588672,-0.155227312031414,-0.0133162429680268,-0.257708466851812,0.010406811731315,-0.131321146275216,0.710277616707867,-0.257403281757052,0.284635965046134,0.120873643197933,-0.00772118289742729,-0.167892493463953,0.507766960661641
8.67,2,0.247779778435621,0.278857793918678,0.00280770287179174,0.0782901496424248,-0.190191351054415,-0.151615955076754,-0.0470086774295277,-0.292825098422193,-0.0120548112430189,-0.128686381623788,0.905474003316345,-0.223934649698375,0.332438123722037,0.0847397279783522,0.02223782057151,-0.158594520910265,0.412966297392702
8.7,2,0.359436831771803,0.377452925199133,0.00920641702525915,0.0086876023641672,-0.253069653411461,-0.114830978321685,-0.0428174687948241,-0.274432610044659,-0.0138045391196427,-0.118472853785821,1.09725231686351,-0.207230852178513,0.393902401806696,0.0345469527268288,0.0134993540248828,-0.113030386262602,0.331776889350057
8.73,2,0.492151656646423,0.452457248654642,-0.00361135695465967,-0.0718507441429894,-0.280536311939858,-0.0630817590868862,-0.0358592486342967,-0.238095238095238,0.0148014770958586,-0.114963225196081,1.12512588885159,-0.293333740246793,0.461785739717806,-0.0301319416893012,-0.00481175166071556,-0.0551774651326029,0.165257728812525
8.76,2,0.625273394980722,0.457513148391166,-0.0235602893154698,-0.159866125471765,-0.300719219539984,-0.0210882900479141,-0.00147506129133986,-0.153457238481806,-0.000661234371979939,-0.0943632312997833,0.846919156468398,-0.393342895799636,0.522100487278868,-0.102918586789555,-0.0291044852036093,0.097852514216539,0.0403861608732363
8.79,2,0.733074943286437,0.374390901415042,-0.032308928698589,-0.220363984089684,-0.127079073458052,0.117425051627145,-0.00131229590746788,-0.102511673329875,-0.00574765261797947,-0.293201493372397,0.390189316487116,-0.369640186773278,0.557613859472437,-0.175196590065208,-0.0357676931058687,0.165562913907285,0.00963367615792311
8.82,2,0.803816848251798,0.249722790205593,-0.0284330779951374,-0.175389873958556,0.23449405397707,0.0728375092827133,-0.0522985524053672,-0.0336619159520249,-0.00595110934781945,-0.378063295388653,-0.13027334411654,-0.503962319813634,0.565426597898292,-0.23815627511419,-0.0292774234239733,0.0820235806349884,0.0032451348409477
8.85,2,0.836085085604419,0.120568458103173,-0.0560930204168828,-0.0770795820998769,0.363607694733523,0.0275480412203335,-0.0605995869828384,-0.0415967284157842,-0.00753807184057131,-0.422742393261513,-0.673746960865098,-0.48043254900764,0.539658803064058,-0.296161788791569,-0.0776594337799209,-0.0177007354960784,0.00196335744295582
8.88,2,0.787855667795851,-0.157556891588082,-0.115614286731569,0.0232652770572019,0.336751406394645,-0.0268155969929095,-0.260109256263924,0.145705537074903,-0.0228787092705059,-0.60933256019776,-1.70064394054994,-0.673563849808242,0.471704255297505,-0.315917437259031,-0.119683421328369,-0.0994496495457829,0.00167851802117985
8.91,2,0.668029826756595,-0.400545264035971,-0.054251737011831,0.0701722261218096,0.107445499028494,-0.0476699118015076,-0.144220302947071,-0.134617145298624,-0.0269885352132735,-0.551642404451633,-2.53658660644347,-0.915290790531124,0.337168492690817,-0.33061718598997,-0.0570696127201148,-0.0624612160608743,0.00167851802117985
8.94,2,0.513443403424177,-0.52175461083814,-0.0139367859940387,0.0611997843358664,-0.0562049216182948,-0.0259000417086296,-0.0641804254280221,-0.271665598518835,-0.0505488245287433,-0.584846542761518,-2.99759921058789,-1.08562476475316,0.170842616046632,-0.342366812138229,-0.00861639250872321,-0.011139255958739,0.00167851802117985
8.97,2,0.352936389253416,-0.537491988891263,0.0207118950977101,0.0386872971790724,-0.0646483759066541,0.00421155430768761,0.122714926602985,-0.467472355316833,-0.0882290108951079,-0.468764305551317,-2.6788333791111,-1.27167577135533,-0.00556454156112349,-0.358348338267159,0.0226549068676819,0.00476088747825556,0.00167851802117985
9,2,0.204555396181117,-0.493809828994619,0.0389212724183884,0.0300912503433332,-0.0209763888465021,-0.00244148075807978,0.0695313374228136,-0.359843745231483,-0.119764804020305,-0.219438255968912,-2.22083193456832,-0.962187566759239,-0.150313832005778,-0.354777672658467,0.043783888261564,-0.00386567786695964,0.00167851802117985
9.03,2,0.0940682190415154,-0.372834457431766,0.0409660125532802,0.0283211767937254,-0.000549333170567949,-0.00415051728873562,0.0832850123599963,-0.295510727256081,-0.111829991556546,-0.0812809635710725,-1.66315703807693,-0.622292753888567,-0.2654805139317,-0.359467350281279,0.0453199865718558,-0.00932849106316314,0.00167851802117985
9.06,2,0.0263069551683096,-0.229661956643371,0.0342417676320688,0.0261238441114536,-0.00743634347565132,-0.00639871415346741,0.0696127201147496,-0.235979288104902,-0.111178930021058,0.0198980681783502,-1.19156468398083,-0.513250119530829,-0.349386069317708,-0.375591296121097,0.0344452243619088,-0.00714133121738334,0.00167851802117985
9.09,2,-0.00986765139723909,-0.122684408093509,0.0244758445997497,0.0251065604622537,-9.15555284279916e-05,-0.00680562761314737,0.0744549902849412,-0.205338704591001,-0.115370138655761,0.206874802901293,-0.816777041942605,-0.731752474542477,-0.408388520971302,-0.398317412844223,0.0228278450880459,-0.00842310861537523,0.00167851802117985
9.12,2,-0.0297250282296213,-0.064902696818954,0.0176498713136184,0.0249743135878577,0.000152592547379986,-0.00754824467706331,0.0659911903235979,-0.188126265246539,-0.102877895443587,0.396445610929695,-0.559506007059948,-1.17193110955128,-0.448469496749779,-0.418541011790317,0.0159815261289305,-0.00854518265327921,0.00167851802117985
9.15,2,-0.0440789005198319,-0.0450453199865719,0.0148930326242866,0.0248217210404777,0.000152592547379986,-0.00806705933815526,0.0563066499832148,-0.176285083569852,-0.0956348358612832,0.56256803084404,-0.412793359172338,-1.61994282865891,-0.477421389406008,-0.433118686483352,0.0150761436811426,-0.00854518265327921,0.00167851802117985
9.18,2,-0.0526342560096032,-0.0257372763247576,0.0140181686859747,0.0246996470025737,0.000152592547379986,-0.00834172592343923,0.0552893663340149,-0.171198665323852,-0.0820032349620044,0.690745770643229,-0.27998697876929,-1.91073335978271,-0.497767062390006,-0.444939522487055,0.0135196996978668,-0.00854518265327921,0.00167851802117985
9.21,2,-0.0560930204168828,-0.0101423179825231,0.0121056754254789,0.0245674001281777,0.000152592547379986,-0.00828068890448724,0.0536210211493271,-0.171768344167404,-0.064912869655446,0.76164026815597,-0.171768344167404,-1.97181107008067,-0.510920539974161,-0.454593544317962,0.011312194179103,-0.00854518265327921,0.00167851802117985
9.24,2,-0.0576189458906827,-0.00286873989074374,0.011149428795231,0.0244860174362417,0.000152592547379986,-0.00842310861537523,0.0469069490646077,-0.170059307636748,-0.0498163803013194,0.787224951933348,-0.112481053092034,-1.84224982451857,-0.519068982004252,-0.46124657938373,0.010559404278695,-0.00854518265327921,0.00167851802117985
9.27,2,-0.0579139581489507,8.13826919359925e-05,0.0101626636555071,0.0242113508509578,0.000152592547379986,-0.00838241726940723,0.0482090721355836,-0.173721528773868,-0.0351268044068728,0.785800754824468,-0.0905585904517757,-1.59081799778232,-0.525101474044008,-0.466953540655741,0.00991851557969909,-0.00814844203009125,0.00167851802117985
9.3,2,-0.0581581062247587,0.000152592547379986,0.0097964415417951,0.0239875484481338,0.000152592547379986,-0.00817896053956725,0.0597654143904945,-0.170954517248044,-0.0210069073559781,0.694692831202124,-0.0597654143904945,-1.25905128126876,-0.529689423301899,-0.471317687510809,0.00991851557969909,-0.00808740501113926,0.00167851802117985
9.33,2,-0.0584836369925026,0.000152592547379986,0.00984730572425509,0.0222785119174779,-0.00729392376476333,-0.00814844203009125,0.0186671549628183,-0.194962411369162,0.228227586697999,0.370423495183162,-0.0566016622414828,-1.36735129856258,-0.528489028595843,-0.469791762037009,0.00991851557969909,-0.00626646727907142,0.00167851802117985
9.36,2,-0.0607521795302184,-0.00614439324116743,0.0102440463474431,0.0139876501764987,-0.0307524847153132,-0.000518814661091952,-0.0203965371664581,-0.131483911659088,0.211544134851121,0.358907844274219,-0.0800093590095727,-1.64062420524715,-0.50033061718599,-0.439334289579964,0.011139255958739,0.00193283893347982,0.00884019491154719
9.39,2,-0.0617999816888943,-0.0021973326822718,0.0114749595629749,0.000569678843551948,-0.0455641346476638,0.0065106153548794,0.0128076011434268,-0.191625720999786,-0.043387147638376,0.15546128727073,-0.0118920458591469,-0.426953947569201,-0.472965687022512,-0.410952075767286,0.011139255958739,0.011068046103295,0.0905382447787917
9.42,2,-0.0617999816888943,0.000101728364919991,0.010681478316599,-0.0200099693797622,-0.0742617063915932,0.0143538722902107,-0.0236518448438978,-0.167577135532701,0.0333974222032329,-0.0312611265399131,0.0263476465142776,0.381918800419121,-0.455977050080874,-0.393983784498632,0.010589922788171,0.0247606840215257,0.21612191127252
9.45,2,-0.0614541052481663,0.000925728120771915,0.0143945636361787,-0.0458286283964558,-0.0818099510686565,0.0343740145064648,-0.0523799350973032,-0.15296894233019,0.00768049155145929,0.138075909705903,-0.0274361400189215,0.100151575263731,-0.439578437655772,-0.377880184331797,0.0231228573463139,0.0487685781426435,0.348562069561856
9.48,2,-0.0580665506963307,0.0131941689301228,0.032319101535081,-0.0633055614897102,-0.0461846776736757,0.0507624540950753,-0.0336212246060569,-0.181330810469883,-1.01728364919991e-05,0.075645212154505,0.00562557858007548,0.11312194179103,-0.43834752444024,-0.380057171341085,0.0290637938576413,0.0491144545833715,0.511856440931425
9.51,2,-0.0592771182388786,-0.00185145624154383,0.0342926318145288,-0.0768964710430209,-0.0413525803399762,0.0486159855952635,-0.0487584053061515,-0.163874223049613,0.00312306080304371,0.0774661498865729,0.00170903653065584,0.0184535253964863,-0.433403525905128,-0.373902605263426,0.0372732729066846,0.0502843307799514,0.648559017710908
9.54,2,-0.0589058097069206,0.00235501164789778,0.0331329284544409,-0.0878882208726259,-0.032853175450911,0.0492670471307515,-0.0305083366395052,-0.165074617755669,0.0145776746930347,0.0715659047212134,-0.032120731223487,0.0273852758364615,-0.429100416069013,-0.369991149632252,0.033178706218655,0.0500350962858974,0.749198889126255
9.57,2,-0.0594195379497665,0.00160730816573585,0.0383770256660665,-0.097674489577929,-0.0298471022675253,0.0507471948403373,-0.0483514918464716,-0.154922126936654,0.00912503433332316,0.054282255521307,-0.0249336222418897,0.0988901435387229,-0.40858180486465,-0.348948637348552,0.0364187546413567,0.0507421084220913,0.808308155563016
9.6,2,-0.0604164759259824,-0.00201930804366181,0.0376445814386425,-0.107694733522548,-0.0315052746157211,0.0549282306385489,-0.054597613452559,-0.152948596657206,0.00119022186956389,0.0312255216121911,-0.0022227647735018,0.0295978677734713,-0.39623706778161,-0.335556098106835,0.0386669515060884,0.0556861069572029,0.842905972472304
9.63,2,-0.0608691671498764,-0.00184636982329783,0.0355998413037507,-0.115370138655761,-0.0200913520716982,0.054094058046205,-0.043590604368216,-0.156000447604806,0.00564592425305948,0.00720745465458134,0.0291095716218553,-0.022090314442376,-0.381964578183335,-0.320891954303618,0.0373343099256366,0.054373811049735,0.879701122063865
9.66,2,-0.0593635873490605,0.00615965249590543,0.0354167302468947,-0.120883816034425,-0.0182704143396303,0.0529445275226091,-0.0506098615476953,-0.153050325022126,0.00707012136193935,-0.00053916033407595,0.0493891211686555,-0.0608844264046144,-0.366593422243924,-0.30698060040081,0.0333872493667409,0.0521713919492172,0.932716859441918
9.69,2,-0.0597705008087405,0.000686666463209937,0.0350759402244128,-0.1285439619129,-0.0264392020427056,0.0600400809757785,-0.0471104057944477,-0.151890621662038,0.010366120385347,-0.0183874019592883,0.0486668497777235,-0.0572425509404787,-0.350861130609048,-0.290861740979237,0.0359355449079867,0.0605334635456404,0.982299264503922
9.72,2,-0.0600655130670085,0.000152592547379986,0.0364696188238166,-0.13602099673452,-0.021393475142674,0.0608081301309244,-0.0356964832504247,-0.159764397106845,0.00820947904904324,-0.0258084861802016,0.0452640359711498,-0.0390331736198004,-0.330800297046826,-0.270490635904009,0.0367748039185766,0.0608539078951384,1.03002004048789
9.75,2,-0.0602689697968485,0.000152592547379986,0.0366222113711966,-0.139998575802891,-0.0114139225440229,0.0560319833979308,-0.0412711976480402,-0.160435804315317,0.00680562761314737,-0.0479801833145136,0.04325490076398,-0.0464440850042217,-0.30954924161504,-0.249112420016073,0.0367748039185766,0.0574154891608427,1.06823938718833
9.78,2,-0.0581021556240527,0.00715659047212134,0.0340433973204749,-0.141570279040905,-0.00167851802117985,0.054307687612537,-0.0392773216956084,-0.159011607206437,0.00849431847081922,-0.0717541021963154,0.04396699931842,-0.0519221574551632,-0.297814874721519,-0.239488916694642,0.032644632302825,0.0533463545640431,1.08780175176244
9.81,2,-0.053809218624429,0.0141402427238787,0.0281126336456394,-0.143833735160375,-0.0076245409507533,0.0558336130863369,-0.0369782606484166,-0.159194718263293,0.010630614134139,-0.0912147384055096,0.0268512019206315,-0.0476343068737856,-0.293984801782281,-0.239951780755028,0.0265460168258716,0.0561642302723268,1.09106214585813
9.84,2,-0.0496993926816614,0.0138655761385947,0.0239722891933958,-0.143650624103519,0.000137333292641987,0.0517695649077832,-0.0383414207383445,-0.15622425000763,0.010773033845027,-0.102882981861833,-0.000595110934781945,-0.0552232428968169,-0.293176061281167,-0.243278298287912,0.0236264127526678,0.0519882808923612,1.05590990936003
9.87,2,-0.0471460107221697,0.00906399731437117,0.0228278450880459,-0.143335266172267,0.000152592547379986,0.0517797377442752,-0.0350454217149368,-0.151178523107598,0.0198065126499222,-0.0893988870916878,-0.043290505691702,-0.0600960315764845,-0.292545345418663,-0.245180618711915,0.0233364869126459,0.0518814661091952,0.978591265602588
9.9,2,-0.0471002329579557,0.000727357809177933,0.0274717449466435,-0.142933439130833,0.000152592547379986,0.0518407747632272,-0.0426750490839361,-0.151158177434614,0.0133976256599628,-0.0798669392986846,-0.0612353892635884,-0.0570289213741468,-0.286924853256834,-0.239621163569038,0.0281991027558214,0.0518814661091952,0.897132277392905
9.93,2,-0.0471154922126937,0.000152592547379986,0.0288501642913093,-0.142572303435367,0.000152592547379986,0.0516169723604033,-0.0478428500218716,-0.153335164443902,0.0169988097781304,-0.0955331074963632,-0.0487380596331675,-0.0829900001017284,-0.285754977060254,-0.238420768862982,0.0288399914548173,0.0516220587786492,0.839238664916939
9.96,2,-0.0450554928230639,0.00707520778018535,0.0268613747571235,-0.142246772667623,0.000152592547379986,0.0513880835393333,-0.0521154413485112,-0.154372793766086,0.0125634530676188,-0.115187027598905,-0.0368714458652506,-0.160206915494247,-0.285668507950072,-0.240384126305938,0.0246538692383597,0.0514236884670553,0.785846532588682
9.99,2,-0.0445570238349559,0.00193283893347982,0.0240791039765618,-0.140217291787469,0.00775170140690329,0.0490941089103875,-0.054719687490463,-0.160334075950397,0.0239773756116418,-0.106982634968108,-0.0237637460453098,-0.314223659983113,-0.284493545335246,-0.23973306477045,0.0258542639444156,0.0468967762281157,0.707017222612181
10.02,2,-0.0433566291289,0.00443027029226559,0.0261289305296996,-0.138584551530503,0.00552385021515549,0.0465000356049277,-0.0586464023763746,-0.162185532191941,0.0158391064180425,-0.0628579566840622,0.0139774773400067,-0.531545965961689,-0.28578549556973,-0.242205064038006,0.0251269061352377,0.0484532202113915,0.575894446648559
10.05,2,-0.0384228034302805,0.0152897732474746,0.0192622658976002,-0.130339467553738,0.0333669036937569,0.0381786553544725,-0.0676595355082858,-0.167821283608509,-0.00790429395428327,-0.0149845881527146,0.0599943032115645,-0.774920906196275,-0.283364360484634,-0.244712668233283,0.0165715506454665,0.0317646819462671,0.39417706839198
10.08,1,-0.0331939654733929,0.0150659708446506,0.0136316008992787,-0.114998830123803,0.054740033163447,0.0239672027751498,-0.0822066916918444,-0.168248542741173,-0.0100202439446191,0.0587786492507706,0.0688548437960957,-1.21467736849066,-0.279636015910316,-0.246218248034099,0.0128991566718548,0.0136773786634927,0.198807743563138
10.11,1,-0.0273700165817235,0.0156051311787266,0.011205379395937,-0.0964639220353811,0.0573493657236447,0.00560014648884548,-0.0719728181808934,-0.166620888902453,-0.0331329284544409,0.164352346364737,0.120451470483515,-1.56012146366771,-0.273985005239011,-0.246416618345693,0.00886562700277718,0.00352997426272368,0.0585294147567166
10.14,1,-0.0193385621712902,0.0148981190425326,0.00714641763562934,-0.086937060660624,0.0230516474908699,0.00628681295205542,-0.0849330118717002,-0.153457238481806,-0.0422274442782881,0.241706595049898,0.0486210720135095,-1.56227810500402,-0.267525254066591,-0.247978148747215,0.00550350454217149,0.0137638477736747,0.0133976256599628
10.17,1,-0.00798567664621926,0.0235908078249458,-0.00237535732088178,-0.0798821985534226,0.0238400423189998,0.0137791070284127,-0.0532547990356151,-0.154148991363262,-0.0450351471500799,0.244829655852941,-0.0639922279529201,-1.2837916196173,-0.269656463311665,-0.261441897844376,-0.00516780093793552,0.0179245378989024,0.00403352966907763
10.2,1,0.00186162907803583,0.02142399365215,-0.00851466414380322,-0.0701366211940875,0.0314696696879991,0.00964893541266111,-0.0726849167353333,-0.135654774620808,-0.0393180130415764,0.25843582466099,-0.139164403210547,-0.928749453210039,-0.274885301268553,-0.276655374818161,-0.011154515213477,0.00768049155145929,0.00210069073559781
10.23,1,0.0065004425183874,0.00600705994852545,-0.00967945392213711,-0.065309610278634,0.00925728120771915,0.00861639250872321,-0.0731935585599333,-0.136468601540167,-0.0358592486342967,0.279798781294188,-0.299289936012858,-0.691610461745048,-0.294289986877041,-0.300683614612262,-0.00742617063915932,0.0230007833084099,0.00171412294890184
10.26,1,0.00880458998382519,0.000376394950203965,-0.00592059083834346,-0.0639515366069521,0.00676493626717938,0.021413820815658,-0.0532547990356151,-0.147556993316446,-0.0289417198197373,0.328089236121708,-0.360998362173325,-0.630354726808476,-0.320937732067832,-0.329666025777968,-0.00492873928037355,0.0291095716218553,0.00167851802117985
10.29,1,0.010533972187465,0.000152592547379986,-0.00534582557654551,-0.0579139581489507,0.02198349965921,0.02198349965921,-0.0443230485956399,-0.156895657216102,-0.0223700674459059,0.364599546291492,-0.420524714906257,-0.633218380280974,-0.335713777072461,-0.346176539404482,-0.00579851680043947,0.0172327850174464,0.00167851802117985
10.32,1,0.0116224656921089,0.000152592547379986,-0.00624612160608743,-0.0500452691223894,0.0261238441114536,0.0162867112236905,-0.0291044852036093,-0.166946419670197,-0.0194402905362102,0.386883144627216,-0.445005645924253,-0.654886522008932,-0.345520391450748,-0.357061474450921,-0.0064851832636494,0.011286762087873,0.00167851802117985
10.35,1,0.010752688172043,-0.00309762871181372,-0.0032247891679637,-0.0415255185603402,0.0283262632119714,0.00685649179560737,-0.0267443871374655,-0.167821283608509,-0.0192571794793542,0.418174789676606,-0.46175522120833,-0.706559444970041,-0.37061677907651,-0.381277911720125,-0.00394197414064964,0.00550859096041749,0.00167851802117985
10.38,1,0.00950651570177313,-0.00369273964659566,-0.00367748039185766,-0.0381583096814885,0.00442518387401959,0.00714641763562934,-0.0258898688721376,-0.168960641295612,-0.0186671549628183,0.449339274269845,-0.492929878638061,-0.781619719026256,-0.399426252021851,-0.408846298613442,-0.00449639372946359,0.0190130314035463,0.00167851802117985
10.41,1,0.00894192327646718,0.00253812270475377,-0.00319427065848771,-0.0357982116153447,0.010498367259743,0.0169326863409324,-0.0151880448825546,-0.168960641295612,-0.0180364391003143,0.478967660552792,-0.50595110934782,-0.817738374991099,-0.42952258878343,-0.438393302204454,-0.00646483759066541,0.0191147597684662,0.00167851802117985
10.44,1,0.0054170354319895,-0.00359609769992167,2.54320912299977e-05,-0.0292112999867753,0.0247555976032797,0.00846888637958922,0.000396740623187963,-0.171483504745628,-0.0132755516220588,0.493235063732821,-0.467126478876105,-0.807657094027528,-0.459054333119704,-0.464435763623971,-0.000671407208471938,0.0042980234178696,0.00159713532924385
10.47,1,0.00308745587532172,-1.52592547379986e-05,0.000457777642139958,-0.0249590543331197,0.010854416536963,0.00462864060385957,0.00578834396394747,-0.172175257627084,-0.00753807184057131,0.460361542608926,-0.386923835973184,-0.726605019277525,-0.484247362692139,-0.487253435875525,-0.00134281441694388,0.010386466058331,0.00134790083518988
10.5,1,0.00124617247026989,0.000152592547379986,0.000457777642139958,-0.0233059684031699,0.00227362895596179,0.00898770104068117,0.0146794030579546,-0.166437777845597,-0.0033061718598997,0.443840856145919,-0.346405428225552,-0.604464857936338,-0.488230028178757,-0.489399904375337,-0.000427259132663961,0.0151219214453566,0.00152592547379986
10.53,1,-0.000295012258267973,0.000152592547379986,0.000457777642139958,-0.021902116967274,0.0075991088595233,0.0146285388754947,0.0311187068290251,-0.158299508651997,0.00890123193049918,0.415672271899574,-0.282347076835434,-0.469079663482569,-0.424349701427249,-0.423881750948617,0.000244148075807978,0.0141300698873867,0.00159713532924385
10.56,1,-0.00174972787662384,0.000152592547379986,0.000457777642139958,-0.0155644398327586,0.0225836970122379,0.00446587521998759,0.0404370250556963,-0.159357483647165,0.0255846837773776,0.355988240201015,-0.206589963479517,-0.353221228675192,-0.35026093325602,-0.348287402976572,0.000946073793755913,-0.00201422162541581,0.00167851802117985
10.59,1,-0.00506607257301553,-0.00659199804681539,0.00291960407320373,-0.0134891811883908,0.00178024638609984,0.00409965310627562,0.0556962797936949,-0.159357483647165,0.0343333231604968,0.275612659077731,-0.111473942279326,-0.305205440432956,-0.296212652974029,-0.290932950834681,0.00571713410850347,0.00940987375509914,0.00167851802117985
10.62,1,-0.00679545477665537,-0.00180059205908383,0.00691752881455936,-0.0132755516220588,0.000152592547379986,0.0087588122196112,0.0693278806929736,-0.155695262510046,0.0361644337290567,0.218604083376568,0.032766706340729,-0.355774610634683,-0.288735618152409,-0.28171636097293,0.0054628131962035,0.0122379222998749,0.00167851802117985
10.65,1,-0.00968454034038311,-0.00594093651132745,0.00575782545447147,-0.0131941689301228,0.000152592547379986,0.011342712688579,-0.0292672505874813,-0.184057130649739,0.143060599586983,0.0124312061932229,0.0468052206996877,-0.615944903917559,-0.26207261370688,-0.252143925290689,0.00790429395428327,0.0123599963377789,0.00307219662058372
