time,Mode,Knee_Angle,Knee_Velocity,Knee_Current,Ankle_Angle,Ankle_Velocity,Ankle_Current,Acc_X,Acc_Y,Acc_Z,Gyro_X,Gyro_Z,Gyro_Y,Shank_Angle,Thigh_Angle,Knee_Ref_Torque,Ankle_Ref_Torque,Filtered_Vertical_Load
0,1,0.0147913042593666,5.08641824599953e-05,-0.00724305958230333,-0.0163274025696585,0.000152592547379986,0.0147913042593666,-0.0168970814132104,-0.158055360576189,-0.0205593025503301,-0.0155135756502986,0.0121260210984629,-0.0357982116153447,-0.0895311339660838,-0.104251228370006,-0.00830103457747124,0.0148014770958586,0.25622323272398
0.03,1,0.0159103162734865,0.000152592547379986,-0.00860621967223121,-0.0163274025696585,0.000152592547379986,0.0146794030579546,-0.0122989593188269,-0.160008545182653,-0.021617277545498,-0.0176295256406344,0.00377412233853165,-0.0314747561062451,-0.087150690226956,-0.102999969481491,-0.00910468866033916,0.0148014770958586,0.257230343536688
0.06,1,0.0170395011240984,0.000152592547379986,-0.00947091077405113,-0.0163274025696585,0.000152592547379986,0.0147302672404146,-0.0150252794986826,-0.158828496149581,-0.0210475987019461,-0.0173853775648264,0.00240078941211178,-0.0304574724570452,-0.0851568142745242,-0.102135278379671,-0.00985747856074709,0.0148014770958586,0.257566047140924
0.09,1,0.0179347107353944,0.000152592547379986,-0.00994903408917508,-0.0163274025696585,0.000152592547379986,0.0145471561835587,-0.0142114525793227,-0.158706422111677,-0.0197454756309702,-0.0145980203660187,0.0054628131962035,-0.0181585131382183,-0.0845362712485122,-0.102379426455479,-0.010406811731315,0.0148014770958586,0.259854935351624
0.12,1,0.0186061179438663,0.000152592547379986,-0.010701823989583,-0.0163274025696585,0.000152592547379986,0.0148828597877946,-0.0138452304656107,-0.159723705760877,-0.0194606362091942,-0.0137536749371827,0.00819930621255125,-0.00189214758751183,-0.0828882717368084,-0.101443525498215,-0.010773033845027,0.0148014770958586,0.261075675730664
0.15,1,0.0192978708253222,0.000152592547379986,-0.010986663411359,-0.0163274025696585,0.000152592547379986,0.0146895758944466,-0.0133976256599628,-0.158991261533453,-0.0205186112043621,-0.0141198970508947,0.00537125766777551,-0.00491348002563555,-0.0816675313577685,-0.100884019491155,-0.011169774468215,0.0148014770958586,0.262245551927244
0.18,1,0.0199285866878262,0.000152592547379986,-0.0114647867264829,-0.0163274025696585,0.000152592547379986,0.0147811314228746,-0.0142114525793227,-0.159357483647165,-0.0192571794793542,-0.0132958972950428,0.00156661681976786,-0.00944039226457513,-0.0807824945829646,-0.100629698578855,-0.0115258237454349,0.0148014770958586,0.267820266324859
0.21,1,0.0205186112043621,0.000152592547379986,-0.0117699718212429,-0.0163274025696585,0.000152592547379986,0.0146895758944466,-0.0146997487309386,-0.159967853836685,-0.0187688833277383,-0.010691651153091,0.00447604805647959,-0.0115461694184189,-0.0802840255948566,-0.100741599780267,-0.0120548112430189,0.0148014770958586,0.268623920407727
0.24,1,0.0209560431735181,0.000152592547379986,-0.0120344655700349,-0.0163274025696585,0.000152592547379986,0.0146895758944466,-0.0151066621906186,-0.159154026917325,-0.0179550564083783,-0.00773135573391929,0.0101626636555071,-0.00827051606799524,-0.0801212602109846,-0.100975575019583,-0.0123294778283029,0.0148014770958586,0.277118238878547
0.27,1,0.021362956633198,0.000152592547379986,-0.0125024160486668,-0.0163274025696585,0.000152592547379986,0.0148014770958586,-0.0142928352712587,-0.159560940377005,-0.0175481429486984,-0.00516780093793552,0.0149133782972706,-0.0043743196915596,-0.0795719270404167,-0.100843328145187,-0.0125125888851588,0.0144759463281147,0.282845545823542
0.3,1,0.021790215765862,0.000152592547379986,-0.0124413790297149,-0.0163070568966745,0.000152592547379986,0.0143436994537187,-0.0138452304656107,-0.159601631722973,-0.0184840439059623,-0.000935900957263914,0.0136824650817387,-0.00267545599739575,-0.0786055075736768,-0.100293994974619,-0.0127872554704428,0.0141911069063387,0.292255419578641
0.33,1,0.022247993408002,0.000152592547379986,-0.0130517492192348,-0.0162155013682465,0.000152592547379986,0.0143742179631947,-0.0133976256599628,-0.159764397106845,-0.0187688833277383,3.05185094759972e-05,0.0132246874395988,-0.00043743196915596,-0.0772932116662089,-0.0994699952187668,-0.0129703665272988,0.0141911069063387,0.300475071464176
0.36,1,0.0226955982136499,0.000152592547379986,-0.0132450331125828,-0.0162561927142145,0.000152592547379986,0.0142317982523067,-0.0124210333567309,-0.160537532680237,-0.0194606362091942,0.00191249326049582,0.00787377544480728,0.00170903653065584,-0.075675730663981,-0.098300119022187,-0.0133671071504868,0.0141911069063387,0.306690674560788
0.39,1,0.0229092277799819,0.000152592547379986,-0.0135603910438348,-0.0161748100222785,0.000152592547379986,0.0143335266172267,-0.0130314035462508,-0.159560940377005,-0.0187688833277383,0.00189214758751183,0.00411999877925962,0.00397757906837163,-0.0745262001403851,-0.097354045228431,-0.0134281441694388,0.0141911069063387,0.307148452202928
0.42,1,0.0230414746543779,0.000152592547379986,-0.0132958972950428,-0.0161748100222785,0.000152592547379986,0.0142826624347667,-0.0142521439252907,-0.159072644225389,-0.0184840439059623,0.00160730816573585,0.00562557858007548,0.00468967762281157,-0.0744753359579251,-0.097415082247383,-0.0134281441694388,0.0141911069063387,0.304198329620248
0.45,1,0.0231533758557899,0.000152592547379986,-0.0135603910438348,-0.0162358470412305,0.000152592547379986,0.0142216254158147,-0.0141707612333547,-0.158747113457645,-0.0184433525599943,0.0011291848506119,0.0120141198970509,0.00746686198512731,-0.0744956816309092,-0.097567674794763,-0.0134281441694388,0.0141911069063387,0.30278430534786
0.48,1,0.0231940672017579,0.000152592547379986,-0.0135298725343588,-0.0163070568966745,0.000152592547379986,0.0142317982523067,-0.0145369833470667,-0.158543656727805,-0.0195013275551622,0.00179041922259184,0.0169377727591784,0.00848414563432722,-0.0745872371593371,-0.097760958688111,-0.0134281441694388,0.0141911069063387,0.299162775556709
0.51,1,0.0231940672017579,0.000152592547379986,-0.0132450331125828,-0.0163070568966745,0.000152592547379986,0.0143030081077507,-0.0141300698873867,-0.159031952879421,-0.0193792535172582,0.000803654082867926,0.0191961424604022,0.00567644276253548,-0.0742108422091332,-0.097343872391939,-0.0134281441694388,0.0141911069063387,0.299091565701264
0.54,1,0.0231940672017579,0.000152592547379986,-0.0133976256599628,-0.0163274025696585,0.000152592547379986,0.0143233537807347,-0.0127872554704428,-0.159357483647165,-0.0187688833277383,-0.00137333292641987,0.0195623645741142,0.000254320912299977,-0.0729290648111413,-0.0960417493209632,-0.0134281441694388,0.0141911069063387,0.297341837824641
0.57,1,0.0231940672017579,0.000152592547379986,-0.0135909095533107,-0.0162968840601825,0.000152592547379986,0.0141605883968627,-0.0122175766268909,-0.158950570187485,-0.0189316487116103,-0.00277718436231574,0.0179754020813623,-0.00267545599739575,-0.0715150405387534,-0.0946480707215593,-0.0134281441694388,0.0141911069063387,0.301034577471236
0.6,1,0.0233263140761539,0.000152592547379986,-0.0135298725343588,-0.0162765383871985,0.000152592547379986,0.0141809340698467,-0.0116885891293069,-0.159357483647165,-0.0189316487116103,-0.00636819564399141,0.0127567369609668,-0.0076092816960153,-0.0696839299701936,-0.0929085156814275,-0.0137638477736747,0.0141911069063387,0.298460849838761
0.63,1,0.0234178696045818,0.000152592547379986,-0.0138655761385947,-0.0161748100222785,0.000152592547379986,0.0143335266172267,-0.0118106631672109,-0.159072644225389,-0.0184433525599943,-0.00753807184057131,0.0114647867264829,-0.0131433047476628,-0.0684835352641377,-0.0918098493402915,-0.0138859218115787,0.0141911069063387,0.299620553198848
0.66,1,0.0235908078249458,0.000152592547379986,-0.0141809340698467,-0.0160934273303425,0.000152592547379986,0.0143640451267027,-0.0119734285510829,-0.159438866339101,-0.0194606362091942,-0.00820947904904324,0.00698873867000336,-0.0171717479984944,-0.0675171157973978,-0.0910570594398836,-0.0138859218115787,0.0141911069063387,0.297931862341177
0.69,1,0.0238044373912778,0.000152592547379986,-0.0139062674845627,-0.0160222174748985,0.000152592547379986,0.0141300698873867,-0.011281675669627,-0.158747113457645,-0.0179143650624104,-0.00902330596840317,0.000223802402823979,-0.0206610309152501,-0.0670389924822738,-0.0907620471816157,-0.0138859218115787,0.0141911069063387,0.299762972909736
0.72,1,0.0239570299386578,0.000152592547379986,-0.0137841934466587,-0.0160222174748985,0.000152592547379986,0.0141605883968627,-0.0124617247026989,-0.159886471144749,-0.0184840439059623,-0.0097455773593351,-0.000915555284279916,-0.0269885352132735,-0.0669067456078778,-0.0907925656910916,-0.0138859218115787,0.0141911069063387,0.297830133976257
0.75,1,0.0240587583035778,0.000152592547379986,-0.0141504155603707,-0.0159510076194545,0.000152592547379986,0.0143335266172267,-0.0127058727785068,-0.159764397106845,-0.0171412294890184,-0.00751772616758731,-2.03456729839981e-05,-0.0342112491225929,-0.0670389924822738,-0.0909960224209316,-0.0138859218115787,0.0141911069063387,0.299284849594612
0.78,1,0.0242316965239418,0.000152592547379986,-0.0140690328684347,-0.0159510076194545,0.000152592547379986,0.0141707612333547,-0.0125024160486668,-0.160008545182653,-0.0184840439059623,0.00149540696432386,-0.00201422162541581,-0.0963469344157231,-0.0675171157973978,-0.0916776024658956,-0.0144962920010987,0.0141911069063387,0.302051861120436
0.81,1,0.0244656717632578,0.000152592547379986,-0.0143945636361787,-0.0160222174748985,0.000152592547379986,0.0142317982523067,-0.0134790083518988,-0.159154026917325,-0.0183619698680583,0.00986765139723909,-0.00284839421775974,-0.187434512365083,-0.0681580044963937,-0.0925422935677155,-0.0144962920010987,0.0141911069063387,0.300180059205908
0.84,1,0.0246589556566057,0.000152592547379986,-0.0145675018565427,-0.0160222174748985,0.000152592547379986,0.0141605883968627,-0.0134790083518988,-0.159560940377005,-0.0185654265978983,0.010701823989583,0.000396740623187963,-0.240282397941018,-0.0692261523280536,-0.0938138981292154,-0.0144962920010987,0.0141911069063387,0.298216701762953
0.87,1,0.0268461155023855,0.00700908434298736,-0.0172633035269224,-0.0160222174748985,0.000152592547379986,0.0142521439252907,-0.0118513545131789,-0.159560940377005,-0.0191757967874182,0.00768049155145929,-0.00511693675547553,-0.248522395499537,-0.0695822016052736,-0.0963571072522151,-0.0194708090456862,0.0141911069063387,0.30085146641438
0.9,1,0.0266121402630696,0.000183111056855983,-0.0158594520910265,-0.0160425631478825,0.000152592547379986,0.0141504155603707,-0.0126651814325388,-0.159967853836685,-0.0201930804366181,0.00583920814640746,-0.0131229590746788,-0.282998138370922,-0.0700908434298736,-0.0966216010010071,-0.0151066621906186,0.0141911069063387,0.301838231554104
0.93,1,0.0272428561255735,0.00193283893347982,-0.0181381674652343,-0.0161748100222785,0.000152592547379986,0.0141707612333547,-0.0116885891293069,-0.159031952879421,-0.0191757967874182,0.00894192327646718,-0.0131026134016948,-0.349487797682628,-0.0710063987141535,-0.098167872147791,-0.0174565874202704,0.0141911069063387,0.300159713532924
0.96,1,0.0268257698294015,0.000183111056855983,-0.0162460198777225,-0.0161748100222785,0.000152592547379986,0.0142521439252907,-0.0156356496882026,-0.158665730765709,-0.0175074516027304,0.010528885769219,-0.000467950478631957,-0.35056611835078,-0.0723390402946053,-0.0991037731050549,-0.0159306619464705,0.0141911069063387,0.29937640512304
0.99,1,0.0266528316090375,0.000152592547379986,-0.0157678965625985,-0.0161748100222785,0.000152592547379986,0.0142521439252907,-0.0142114525793227,-0.158909878841517,-0.0130720948922188,0.00794498530025127,0.00818913337605925,-0.241899878943246,-0.0733766696167893,-0.0999582913703828,-0.0158696249275185,0.0141911069063387,0.298572751040173
1.02,1,0.0264798933886736,0.000152592547379986,-0.0158899706005025,-0.0162765383871985,0.000152592547379986,0.0143742179631947,-0.0130314035462508,-0.160049236528621,-0.011159601631723,9.15555284279916e-05,0.0181076489557583,-0.0549027985473189,-0.0728782006286813,-0.0992970569984029,-0.0157170323801386,0.0141911069063387,0.296894233018993
1.05,1,0.0263985106967376,0.000152592547379986,-0.0157068595436466,-0.0161849828587705,0.000152592547379986,0.0142114525793227,-0.0138045391196427,-0.159398174993133,-0.0153101189204586,0.00734478794722332,0.0264290292062136,0.0182297229936623,-0.0716269417401654,-0.097984761090935,-0.0154118472853786,0.0141911069063387,0.298572751040173
1.08,1,0.0263679921872616,0.000152592547379986,-0.0153101189204586,-0.0161748100222785,0.000152592547379986,0.0141707612333547,-0.0128686381623788,-0.158747113457645,-0.0168970814132104,0.00797550380972727,0.0295419171727653,0.0117191076387829,-0.0703451643421735,-0.0966114281645151,-0.0154118472853786,0.0141911069063387,0.298938973153884
1.11,1,0.0261950539668976,0.000152592547379986,-0.0152796004109826,-0.0161748100222785,0.000152592547379986,0.0144047364726707,-0.0123396506647949,-0.159560940377005,-0.0177515996785384,0.00727357809177933,0.0275887325663015,0.00710063987141535,-0.0688090660318817,-0.0948922187973673,-0.0154118472853786,0.0141911069063387,0.30039368877224
1.14,1,0.0260933256019776,0.000152592547379986,-0.0156254768517106,-0.0161748100222785,0.000152592547379986,0.0141809340698467,-0.0116072064373709,-0.159723705760877,-0.0168563900672424,0.00774152857041129,0.0241096224860378,0.00857570116275521,-0.0666524246955779,-0.0926948861150955,-0.0154118472853786,0.0141911069063387,0.302672404146448
1.17,1,0.0262357453128656,0.000152592547379986,-0.0153508102664266,-0.0161748100222785,0.000152592547379986,0.0141707612333547,-0.0122989593188269,-0.160130619220557,-0.0168563900672424,0.00617491175064343,0.0199082410148422,0.00622577593310343,-0.065553758354442,-0.0916877753023876,-0.0154118472853786,0.0141911069063387,0.315266375723543
1.2,1,0.0263273008412936,0.000152592547379986,-0.0151982177190466,-0.0161748100222785,0.000152592547379986,0.0143640451267027,-0.011200292977691,-0.158625039419741,-0.0175888342946664,0.00499486271757154,0.0184636982329783,0.00348928291675568,-0.0644042278308461,-0.0906603188166957,-0.0154118472853786,0.0141911069063387,0.32751447085991
1.23,1,0.0265612760806096,0.000152592547379986,-0.0158594520910265,-0.0161748100222785,0.000152592547379986,0.0143131809442427,-0.0118920458591469,-0.160740989410077,-0.0174667602567624,0.0032959990234077,0.0209560431735181,0.000885036774803919,-0.0630512405774102,-0.0895107882930998,-0.0157475508896146,0.0141911069063387,0.340586565752129
1.26,1,0.0267036957914975,0.000152592547379986,-0.0159103162734865,-0.0160425631478825,0.000152592547379986,0.0141300698873867,-0.0116478977833389,-0.160089927874589,-0.0174260689107944,0.000803654082867926,0.0200710063987142,-0.00043743196915596,-0.0621662038026063,-0.0887986897386598,-0.0158696249275185,0.0141911069063387,0.347982217881812
1.29,1,0.0267036957914975,0.000152592547379986,-0.0157475508896146,-0.0160222174748985,0.000152592547379986,0.0143742179631947,-0.010589922788171,-0.159398174993133,-0.0170191554511144,-0.00269580167037975,0.0178940193894264,-0.00315357931251971,-0.0610166732790104,-0.0877101962340159,-0.0158696249275185,0.0141911069063387,0.354798018331451
1.32,1,0.0267036957914975,0.000152592547379986,-0.0161442915128025,-0.0159154026917325,0.000152592547379986,0.0143080945259967,-0.0115665150914029,-0.160537532680237,-0.0167750073753065,-0.00524918362987152,0.0144199957274087,-0.00269071525213375,-0.0600197353027945,-0.086723431094292,-0.0158696249275185,0.0141911069063387,0.359716584775333
1.35,1,0.0267342143009735,0.000152592547379986,-0.0158289335815505,-0.0158696249275185,0.000152592547379986,0.0142521439252907,-0.00989816990671509,-0.160171310566525,-0.0168563900672424,-0.00619525742362743,0.010549231442203,-0.00119022186956389,-0.0592059083834345,-0.0859096041749321,-0.0158696249275185,0.0141911069063387,0.36695455793939
1.38,1,0.0268562883388775,0.000152592547379986,-0.0157170323801386,-0.0158696249275185,0.000152592547379986,0.0143233537807347,-0.010427157404299,-0.160171310566525,-0.0165308592994985,-0.00665303506576739,0.00666320790225939,0.000579851680043947,-0.0583310444451226,-0.0850347402366202,-0.0158696249275185,0.0141911069063387,0.372132531713818
1.41,1,0.0268562883388775,0.000152592547379986,-0.0158696249275185,-0.0158696249275185,0.000152592547379986,0.0143640451267027,-0.010427157404299,-0.159967853836685,-0.0163680939156265,-0.00385550503046765,0.00251269061352377,-0.000386567786695964,-0.0579241309854427,-0.0846278267769402,-0.0158696249275185,0.0141911069063387,0.373353272092858
1.44,1,0.0268562883388775,0.000152592547379986,-0.0159001434369945,-0.0158696249275185,0.000152592547379986,0.0142317982523067,-0.0102237006744591,-0.159764397106845,-0.0163274025696585,-0.00203456729839981,0.00184128340505183,0.000600197353027945,-0.0576698100731427,-0.0843735058646402,-0.0158696249275185,0.0141911069063387,0.372580136519466
1.47,1,0.0268562883388775,0.000152592547379986,-0.0158797977640105,-0.0158696249275185,0.000152592547379986,0.0142826624347667,-0.00961333048493912,-0.158543656727805,-0.0175481429486984,-0.000569678843551948,-0.00251269061352377,0.00159713532924385,-0.0574561805068107,-0.0841903948077843,-0.0158696249275185,0.0141911069063387,0.374655395163834
1.5,1,0.0268562883388775,0.000152592547379986,-0.0159306619464705,-0.0158696249275185,0.000152592547379986,0.0143335266172267,-0.0102237006744591,-0.159560940377005,-0.0161239458398185,0.00306202378409172,-0.00676493626717938,0.00189214758751183,-0.0572832422864467,-0.0840886664428643,-0.0158696249275185,0.0141911069063387,0.375682851649525
1.53,1,0.0268562883388775,0.000152592547379986,-0.0159204891099785,-0.0158696249275185,0.000152592547379986,0.0141809340698467,-0.010630614134139,-0.159560940377005,-0.0155135756502986,0.00171920936714784,-0.00957263913897112,0.00288908556372773,-0.0579037853124587,-0.0847397279783522,-0.0158696249275185,0.0141911069063387,0.373556728822698
1.56,1,0.0268562883388775,0.000152592547379986,-0.0157068595436466,-0.0158696249275185,0.000152592547379986,0.0142012797428307,-0.0102643920204271,-0.159357483647165,-0.0162053285317545,0.00260424614195176,-0.0143233537807347,0.00211594999033581,-0.0583920814640746,-0.0852280241299682,-0.0158696249275185,0.0141911069063387,0.372071494694866
1.59,1,0.0268562883388775,0.000152592547379986,-0.0159204891099785,-0.0158696249275185,0.000152592547379986,0.0142317982523067,-0.010874762209947,-0.159967853836685,-0.0162460198777225,0.0043336283455916,-0.0206203395692821,0.0011291848506119,-0.0594297107862585,-0.0862453077791681,-0.0158696249275185,0.0141911069063387,0.373322753583382
1.62,1,0.0269987080497655,0.000152592547379986,-0.0160934273303425,-0.0158696249275185,0.000152592547379986,0.0141605883968627,-0.010874762209947,-0.160171310566525,-0.0168563900672424,0.00362152979115167,-0.0230618203273619,-0.00119022186956389,-0.0607521795302184,-0.0876695048880479,-0.0158696249275185,0.0141911069063387,0.374523148289438
1.65,1,0.0271614734336375,0.000152592547379986,-0.0155796990874966,-0.0159510076194545,0.000152592547379986,0.0141504155603707,-0.0114444410534989,-0.159601631722973,-0.0159204891099785,0.00334177678762169,-0.0239570299386578,0.000564592425305948,-0.0622374136580503,-0.0892462945443078,-0.0158696249275185,0.0141911069063387,0.37318542029074
1.68,1,0.0271004364146855,0.000152592547379986,-0.0157882422355825,-0.0158696249275185,0.000152592547379986,0.0142317982523067,-0.0123396506647949,-0.159438866339101,-0.0160018718019145,0.00486261584317555,-0.0243334248888618,0.000233975239315978,-0.0640481785536261,-0.0910468866033916,-0.0158696249275185,0.0141911069063387,0.374116234829758
1.71,1,0.0270088808862575,0.000152592547379986,-0.0161442915128025,-0.0160120446384065,0.000152592547379986,0.0142928352712587,-0.0122582679728589,-0.159438866339101,-0.0157170323801386,0.0065004425183874,-0.0233263140761539,0.0033061718598997,-0.0659403261411379,-0.0929085156814275,-0.0158696249275185,0.0141911069063387,0.372366506953134
1.74,1,0.0270088808862575,0.000152592547379986,-0.0159306619464705,-0.0160934273303425,0.000152592547379986,0.0141809340698467,-0.0125024160486668,-0.160252693258461,-0.0167343160293385,0.0065716523738314,-0.02142399365215,0.00398775190486363,-0.0675883256528418,-0.0945361695201473,-0.0158696249275185,0.0141911069063387,0.372681864884386
1.77,1,0.0268868068483535,0.000152592547379986,-0.0157373780531226,-0.0161748100222785,0.000152592547379986,0.0143131809442427,-0.0115665150914029,-0.159967853836685,-0.0160832544938505,0.00524918362987152,-0.0286060162155014,0.010864589373455,-0.0687073376669617,-0.0955025889868872,-0.0158696249275185,0.0141911069063387,0.372254605751722
1.8,1,0.0251065604622537,-0.00509659108249153,-0.0155237484867906,-0.0161748100222785,0.000152592547379986,0.0141911069063387,-0.00985747856074709,-0.160944446139917,-0.0177515996785384,0.00204474013489181,-0.0436109500412,0.0169988097781304,-0.0696330657877336,-0.0946887620675273,-0.0131534775841548,0.0141911069063387,0.370738853114414
1.83,1,0.0233771782586139,-0.00319427065848771,-0.010559404278695,-0.0161748100222785,0.000152592547379986,0.0141911069063387,-0.0118513545131789,-0.160496841334269,-0.0173039948728904,-0.00568661559902748,-0.0563778598386588,0.0249336222418897,-0.0718914354889574,-0.0951872310556352,-0.0114139225440229,0.0141911069063387,0.366863002410962
1.86,1,0.0209967345194861,-0.00524918362987152,-0.0122480951363669,-0.0161748100222785,0.000152592547379986,0.0142928352712587,-0.010467848750267,-0.158991261533453,-0.0169784641051464,-0.0098269600512711,-0.075909705903297,0.033143101290933,-0.0749636321095411,-0.0958789839370912,-0.010528885769219,0.0141911069063387,0.365062410351878
1.89,1,0.0155542669962666,-0.011108737449263,-0.00421155430768761,-0.0161849828587705,0.000152592547379986,0.0142114525793227,-0.00660217088330739,-0.160089927874589,-0.0158391064180425,-0.00997955259865108,-0.125105543178604,0.0495315408795434,-0.0804976551611886,-0.0959603666290272,-0.00317392498550371,0.0141911069063387,0.358582313506475
1.92,1,0.011210465814183,-0.00405896176030763,-0.00467950478631957,-0.0163274025696585,0.000152592547379986,0.0143233537807347,-0.0266223130995615,-0.158299508651997,-0.0162053285317545,-0.010579749951679,-0.107160659606718,0.0743532619200212,-0.0860621967223121,-0.0971709341715751,-0.00525935646636352,0.0147200944039226,0.352692241177608
1.95,1,0.000549333170567949,-0.0199591051973022,0.00515762810144353,-0.0163274025696585,0.000152592547379986,0.0145573290200507,-0.0200710063987142,-0.156305632699566,-0.0176295256406344,-0.0154016744488866,-0.0443637399416079,0.0783206681519008,-0.0924609108757795,-0.0928474786624755,0.00919624418876715,0.0148014770958586,0.342814416943876
1.98,1,-0.00389619637643564,-0.00307219662058372,0.00771101006093529,-0.0164189580980865,0.000152592547379986,0.0146183660390027,-0.0273547573269855,-0.156509089429406,-0.0168970814132104,-0.0250251777703177,0.0076499730419833,0.10874762209947,-0.097852514216539,-0.0937528611102634,0.00448622089297159,0.0148014770958586,0.34527624337494
2.01,1,-0.00699891150649536,8.13826919359925e-05,0.00408948026978362,-0.0165613778089745,0.000152592547379986,0.0147811314228746,-0.0166936246833705,-0.159520249031037,-0.0166936246833705,-0.0202032532731101,0.000640888698995941,0.0724204229865413,-0.0989715262306589,-0.0917691579943236,0.00409965310627562,0.0148014770958586,0.346710613320312
2.04,1,-0.00931831822667114,0.000152592547379986,0.00464898627684357,-0.0167241431928465,0.000152592547379986,0.0146997487309386,-0.0199896237067782,-0.160456149988301,-0.0163274025696585,-0.0148319956053346,-0.00880967640207119,0.00801619515569526,-0.0994699952187668,-0.0899278745892717,0.00552385021515549,0.0148014770958586,0.35087130344554
2.07,1,-0.011159601631723,0.000152592547379986,0.00592059083834346,-0.0169682912686544,0.000152592547379986,0.0149845881527146,-0.0189723400575783,-0.159967853836685,-0.0157170323801386,-0.0164799951170385,-0.00331634469639169,-0.00518814661091952,-0.101036612038535,-0.0896328623310037,0.00659199804681539,0.0152287362285226,0.351471500798568
2.1,1,-0.0127160456149988,0.000152592547379986,0.00703960285246335,-0.0171971800897244,0.000152592547379986,0.0152287362285226,-0.0178940193894264,-0.159744051433861,-0.0171819208349864,-0.0242164372692038,-0.00374360382905566,-0.00601723278501745,-0.101123081148717,-0.0881832331308939,0.0076601458784753,0.0152592547379986,0.35074414298939
2.13,1,-0.0139927365947447,0.000152592547379986,0.00806197291990926,-0.0173955504013184,0.000152592547379986,0.0151880448825546,-0.0178533280434584,-0.159154026917325,-0.0157170323801386,-0.0293435468611713,-0.00504572690003154,-0.0115716015096489,-0.100990834274321,-0.086804813786228,0.00842310861537523,0.0154576250495926,0.350586464023764
2.16,1,-0.0149998474074526,0.000152592547379986,0.00875372580136519,-0.0173955504013184,0.000152592547379986,0.0154423657948546,-0.0189723400575783,-0.158035014903205,-0.0148014770958586,-0.0313425092318491,-0.000747703482161931,-0.0115563422549109,-0.101260414441359,-0.0860367646310821,0.00901821955015717,0.0156559953611866,0.352783796706036
2.19,1,-0.0159764397106845,0.000152592547379986,0.00933866389965514,-0.0173955504013184,0.000152592547379986,0.0155390077415286,-0.0194606362091942,-0.158421582689901,-0.0152490819015066,-0.0349996439507228,0.0054017761772515,-0.010818811609241,-0.101799574775435,-0.0856044190801721,0.00965402183090711,0.0153660695211646,0.349813328450372
2.22,1,-0.0167394024475845,0.000152592547379986,0.00990834274320709,-0.0173955504013184,0.000152592547379986,0.0153355510116886,-0.0192368338063702,-0.159296446628213,-0.0138859218115787,-0.0390942106387524,0.00897752820418917,-0.0125075024669128,-0.102094587033703,-0.0851517278562782,0.0102084414197211,0.0152592547379986,0.35188858709474
2.25,1,-0.0174209824925484,0.000152592547379986,0.010396638894823,-0.0173955504013184,0.000152592547379986,0.0152643411562446,-0.0182805871761223,-0.160049236528621,-0.0127669097974588,-0.0442314930672119,0.0144301685639007,-0.0119225643686229,-0.101504562517167,-0.0838445183670563,0.010574663533433,0.0152592547379986,0.354701376384777
2.28,1,-0.0181178217922503,0.000152592547379986,0.010778120263273,-0.0173955504013184,0.000152592547379986,0.0152338226467686,-0.0186468092898343,-0.159215063936277,-0.0138248847926267,-0.0484735658843755,0.0160730816573585,-0.0133213293862728,-0.100589007232887,-0.0822372102013204,0.010971404156621,0.0152592547379986,0.356598610390535
2.31,1,-0.0187485376547543,0.000152592547379986,0.011240984323659,-0.0173955504013184,0.000152592547379986,0.0152185633920306,-0.0195216732281462,-0.159418520666117,-0.0116885891293069,-0.0505132196010214,0.0189214758751183,-0.0165613778089745,-0.100227871537421,-0.0812351858068585,0.011291848506119,0.0153813287759026,0.358389029613127
2.34,1,-0.0192470066428622,0.000152592547379986,0.0115817743461409,-0.0173955504013184,0.000152592547379986,0.0153406374299346,-0.0187688833277383,-0.159764397106845,-0.0119937742240669,-0.054877366456089,0.0249234494053977,-0.0176193528041424,-0.0995869828384248,-0.0801314330474766,0.0117343668935209,0.0155949583422346,0.358938362783695
2.37,1,-0.0196284880113122,0.000152592547379986,0.0118360952584409,-0.0173955504013184,0.000152592547379986,0.0156661681976786,-0.0178533280434584,-0.158564002400789,-0.010650959807123,-0.0592974639118625,0.0303353984191412,-0.0193233029165522,-0.0984577979878129,-0.0785902483189388,0.0117496261482589,0.0153965880306406,0.364635151219214
2.4,1,-0.0199336731060722,0.000152592547379986,0.0120802433342489,-0.0174260689107944,0.000152592547379986,0.0155491805780206,-0.0181178217922503,-0.159540594704021,-0.00910468866033916,-0.0607420066937264,0.0398978647216203,-0.0163172297331665,-0.0963571072522151,-0.076240323089287,0.0122175766268909,0.0156712546159246,0.37168492690817
2.43,1,-0.0204067100029501,0.000152592547379986,0.0122938729005809,-0.0174769330932544,0.000152592547379986,0.0155491805780206,-0.0176905626595864,-0.159642323068941,-0.00973540452284311,-0.0602689697968485,0.0523341573330892,-0.0132043417666148,-0.0940987375509914,-0.0734427930539872,0.0123752555925169,0.0157170323801386,0.392335784986928
2.46,1,-0.0209153518275501,0.000152592547379986,0.0126397493413088,-0.0173955504013184,0.000152592547379986,0.0157272052166306,-0.0177109083325704,-0.160720643737093,-0.00920641702525915,-0.0594958342234565,0.0636412650939461,-0.0161900692770165,-0.0910061952574236,-0.0699026459547716,0.0128177739799188,0.0156407361064486,0.425071972818181
2.49,1,-0.021327351705476,0.000152592547379986,0.0128889838353628,-0.0173599454735964,0.000152592547379986,0.0154830571408226,-0.0152490819015066,-0.160924100466933,-0.00806705933815526,-0.0615761792860703,0.0672882269763278,-0.0166173284096805,-0.087369406211534,-0.0658335113579719,0.0129245887630848,0.0152592547379986,0.462920010986663
2.52,1,-0.022273425499232,-0.000986765139723909,0.0133620207322408,-0.0171463159072644,0.000152592547379986,0.0154118472853786,-0.0138859218115787,-0.159988199509669,-0.00615456607765943,-0.0606911425112664,0.0686412142297637,-0.021342610960214,-0.0823694570757164,-0.0598925748466445,0.0133874528234708,0.0152592547379986,0.502868739890744
2.55,1,-0.0248115482039857,-0.00692261523280536,0.0173650318918424,-0.0163935260068565,0.00421155430768761,0.0153508102664266,-0.0139469588305307,-0.159601631722973,-0.00554419588813949,-0.0594093651132745,0.0733817560350352,-0.0197556484674622,-0.0777967670725628,-0.0527359843745231,0.0190638955860062,0.0140741192866807,0.553097120069989
2.58,1,-0.0261645354574216,-0.00390636921292764,0.0169886369416384,-0.0144962920010987,0.00388602353994364,0.00732952869248533,-0.0129093295083468,-0.159215063936277,-0.00418103579821162,-0.0525986510818812,0.0751111382386751,-0.0180923897010203,-0.0745414593951231,-0.0481480351166316,0.0171666615802484,0.00832646666870123,0.609495325581632
2.61,1,-0.0317901140374971,-0.0169428591774244,0.0237383139540798,-0.0133213293862728,0.00675984984893338,0.00843836787011322,-0.00556454156112349,-0.159215063936277,-0.00387585070345164,-0.0468103071179337,0.0603554389070304,-0.00950142928352713,-0.0707520778018535,-0.0387432477797784,0.0268766340118615,0.00846888637958922,0.660898668375703
2.64,1,-0.0397045808282723,-0.0250506098615477,0.0342570268868069,-0.0100304167811111,0.00914029358806116,0.00125125888851588,-0.0136621194087547,-0.160089927874589,-0.00289925840021973,-0.0364340138960947,0.0559811192154709,-0.00671407208471938,-0.0672424492121138,-0.0273089795627715,0.0365306558427686,0.00196844386120182,0.706946012756737
2.67,1,-0.0475529241818496,-0.0251523382264677,0.0400148523412783,-0.00680562761314737,0.0120497248247729,0.00139876501764987,-0.00784325693533128,-0.159683014414909,-0.00269580167037975,-0.0288349050365713,0.0642058575192521,-0.00380972726625365,-0.0638091168960641,-0.0160273038931445,0.0410677409182002,-0.000137333292641987,0.765322834966074
2.7,1,-0.0528784040854111,-0.0164087852615945,0.0416425061799982,-0.00170395011240984,0.0178431552069664,-0.00393688772240364,-0.0148014770958586,-0.160679952391125,-0.000661234371979939,-0.0143589587084567,0.0929848119551175,-0.0115665150914029,-0.0590278837448246,-0.00592059083834346,0.0408083335876542,-0.010793379518011,0.811553290403963
2.73,1,-0.0580462050233467,-0.0158696249275185,0.0424309010081281,0.00357066560869167,0.0166020691549425,-0.00905891089612517,-0.0103254290393791,-0.160781680756045,-0.000661234371979939,0.0032247891679637,0.0935850093081454,-0.010355947548855,-0.0532395397808771,0.00486770226142155,0.043341369874162,-0.0143996500544247,0.846303699860632
2.76,1,-0.0629189937030142,-0.0158848841822565,0.0461745048371838,0.0076550594602293,0.0132043417666148,-0.0130568356374808,-0.0120548112430189,-0.163731803338725,-0.000356049277219967,0.0122124902086449,0.132669047110406,-0.0159459212012085,-0.0468509984639017,0.0161341186763105,0.0471867020681377,-0.0143080945259967,0.868511001922666
2.79,1,-0.0633665985086622,-0.00182602415031383,0.0400758893602303,0.0147404400769066,0.0265307575711336,-0.0184331797235023,1.01728364919991e-05,-0.158625039419741,-0.00190232042400382,0.0268257698294015,0.157821385336873,-0.00719728181808934,-0.0353353475549587,0.0281126336456394,0.0393536179692984,-0.0299691763054292,0.878241320027263
2.82,1,-0.0641041291543321,-0.000991851557969909,0.0411440371918902,0.0224514501378419,0.0224768822290719,-0.032583595283873,-0.0140893785414187,-0.161208939888709,-0.000742617063915932,0.043239641509242,0.161732840968047,-0.011174860886461,-0.0286314483067314,0.0355642363760287,0.0399995930865403,-0.0360728782006287,0.872427543972086
2.85,1,-0.064719585762098,-0.00138350576291187,0.0405794447665843,0.0269529302855515,0.0166681925921405,-0.032329274371573,0.00147506129133986,-0.159377829320149,-0.00302133243812372,0.0511235897905413,0.179484440646585,-0.00643431908118941,-0.0201015249081902,0.0447045299640899,0.0405845311848303,-0.0333058666748049,0.872264778588214
2.88,1,-0.064699240089114,0.00011190120141199,0.0395977660451064,0.0379497665334025,0.0375428530737225,-0.0525172683899452,-0.011017181920835,-0.158319854324981,-0.00232957955666779,0.0607826980396944,0.21439252906888,0.00283822138126774,-0.00587989949237546,0.0588905504521826,0.0396740623187963,-0.0601011179947305,0.873078605507574
2.91,1,-0.064699240089114,0.000152592547379986,0.0396231981363364,0.0440890733563239,0.0181279946287423,-0.0520137129835912,0.00385550503046765,-0.160008545182653,-0.00574765261797947,0.0603147475610625,0.233792128259122,-0.00308236945707572,-0.0010376293221839,0.0637836848048341,0.0396740623187963,-0.0494603310240994,0.876857814264351
2.94,1,-0.064699240089114,0.000152592547379986,0.0395825067903684,0.0565406252225308,0.04356008585874,-0.0772016561377809,-0.00493382569861955,-0.160171310566525,-0.00289925840021973,0.0699179052095096,0.271014536983347,-0.00336720887885169,0.0172429578539384,0.0821863460188604,0.0396740623187963,-0.0799584948271126,0.876918851283303
2.97,1,-0.064699240089114,0.000152592547379986,0.0396435438093204,0.0683919797357097,0.0384533219397565,-0.0859299498479161,0.00727357809177933,-0.160578224026205,-0.00554419588813949,0.0853704438408562,0.307240007731356,-0.0132450331125828,0.0294808801538133,0.0943632312997833,0.0396740623187963,-0.0853602710043641,0.877000233975239
3,1,-0.0645669932147181,0.000152592547379986,0.0396333709728284,0.0824711854406364,0.0454420606097598,-0.102877895443587,-0.00249234494053977,-0.163426618243965,-0.00717184972685934,0.0926541947691275,0.358409375286111,-0.0190130314035463,0.0466933194982757,0.111463769442834,0.0396435438093204,-0.104871771396018,0.875179296243171
3.03,1,-0.0643940549943541,0.000152592547379986,0.0392874945321004,0.0961739961953592,0.0479649240597756,-0.114342682170069,0.0137841934466587,-0.157526373078606,-0.0134790083518988,0.0908536027100436,0.437340413627532,0.00299081392864772,0.0661030915250099,0.13068025757622,0.0392162846766564,-0.115380311492253,0.871740877508876
3.06,1,-0.0633055614897102,0.0032756533504237,0.0389924822738324,0.113182978809982,0.0535091199479151,-0.136438083030691,0.00816878770307525,-0.170669677826268,-0.00314340647602771,0.112887966551714,0.494359162165186,0.0184433525599943,0.0948006632689393,0.158330027161473,0.0380972726625365,-0.137791070284127,0.864945422732221
3.09,1,-0.0594602292957345,0.0122989593188269,0.032288583025605,0.127282530187892,0.0415153457238482,-0.141412600075279,-0.00302133243812372,-0.190201523890907,-0.0174260689107944,0.188716289763075,0.593808811710969,0.0731325215409813,0.127140110477004,0.186813969339071,0.0311492253385011,-0.142206081321655,0.84998118025249
3.12,1,-0.0442518387401959,0.0478835413678396,0.0169988097781304,0.137557095044811,0.0283618681396934,-0.140202032532731,-0.0358592486342967,-0.23540960926135,-0.0162867112236905,0.183640044353567,0.861303547268085,0.10727256080813,0.170099998982716,0.214565467289244,0.00738547929319132,-0.142104352956735,0.802311268450982
3.15,2,-0.0117597989847509,0.0934069846695354,-0.0168258715577665,0.139754427727083,-0.00316375214901171,-0.124647765536465,0.0522375153864152,-0.207617419965209,-0.0387076428520564,0.156102175969726,0.864070558793908,0.124118778038881,0.224931587674591,0.236854152043214,-0.0306202378409172,-0.124546037171545,0.636392305266477
3.18,2,0.0419426048565121,0.157373780531226,-0.0778730633462528,0.131839960936308,-0.0353506068096967,-0.0999989827163508,0.00161748100222785,-0.196305225786106,-0.0551469466231269,0.230018005920591,0.725241859187597,0.431725007883948,0.273069449954731,0.231228573463139,-0.0732342499059013,-0.108727276426486,0.334808394624673
3.21,2,0.0991037731050549,0.17708873765272,-0.0197658213039542,0.0988494521927549,-0.142846970020651,-0.112592954293446,0.0209458703370261,-0.240333262123478,0.00898261462243517,0.13393556525366,0.683421328368989,0.386018453525396,0.313150425733207,0.21408734397412,0.0350149032054608,-0.142094180120243,0.12839136936552
3.24,2,0.207790358185573,0.359385967589343,0.0482090721355836,0.0148218227688426,-0.32588681702119,-0.0892971587267678,-0.0660522273425499,-0.312112796411023,0.0511388490452793,0.0914334543900876,0.876644184698019,0.1287982828252,0.358724733217363,0.151025930560218,0.0379751986246325,-0.0124108605202389,0.0803247169408246
3.27,2,0.347076835434024,0.473372600482192,-0.0123396506647949,-0.0495722322255114,-0.162694174016541,0.0100405896176031,0.0470290231025117,-0.253517258217109,0.043733024079104,-0.0379955442976165,1.31158380891344,-0.285337890764082,0.425092318491165,0.0781172114220608,-0.0127872554704428,0.0908027385275836,0.0718202256335134
3.3,2,0.470753095085503,0.424944812362031,-0.0165664642272205,-0.0492212693665375,0.0413830988494522,0.0471002329579557,-0.130873541469568,-0.0711793369345175,0.00995920692566708,-0.0626595863724682,0.838557084871975,-0.554363638213243,0.495208594012268,0.0245623137099317,-0.0180415255185603,0.053824477879167,0.021210364085818
3.33,2,0.578915779086683,0.369680878119246,-0.0196640929390342,-0.0156661681976786,0.135878577023631,0.0341807306131169,-0.0297555467390973,-0.15642770673747,-0.00733461511073133,-0.202266507970417,0.388693909522792,-0.384289071321757,0.528468682922859,-0.0502334665974914,-0.0224412773013499,0.021535894853562,0.00566626992604348
3.36,2,0.653777682831304,0.258939380067344,-0.0179143650624104,0.0269071525213375,0.144067710399691,0.00887071342102318,-0.0820032349620044,-0.0462355418561358,-0.010508540096235,-0.202734458449049,-0.196040732037314,-0.285134434034242,0.534948779768263,-0.118574582150741,-0.0177719453515224,-0.00229906104719179,0.00246182643106377
3.39,2,0.699036632384208,0.160527359843745,-0.0308847315897092,0.0499079358297474,0.0584429456465346,-0.0032959990234077,-0.0379751986246325,-0.043549913022248,-0.0205999938962981,-0.27917315184993,-0.76626890875983,-0.24151331115655,0.503494369335002,-0.19530828780989,-0.0495315408795434,-0.011027354757327,0.00180059205908383
3.42,2,0.680176193528041,-0.0536413668223111,-0.0887579983926918,0.0505895158747113,-0.00521866512039552,-0.00970488601336711,-0.0459100110883918,-0.0156763410341706,-0.0314238919237851,-0.258756269010488,-1.29189937030142,-0.265551723787144,0.441501103752759,-0.238430941699474,-0.0956246630247912,-0.0173039948728904,0.00167851802117985
3.45,2,0.589668467258726,-0.300912503433332,-0.0427157404299041,0.0457981098869798,-0.0153202917569506,-0.0118717001861629,-0.105685598315378,-0.0182398958301543,-0.0333363851842809,-0.192846461378826,-2.12551245663828,-0.255907874792728,0.337809381389813,-0.251635283466089,-0.0397350993377483,-0.0122074037903989,0.00167851802117985
3.48,2,0.475010427157404,-0.387167984048992,-0.0184535253964863,0.0406201361125523,-0.0156661681976786,-0.0121260210984629,0.0306711020233772,-0.229143141982279,-0.0496536149174474,-0.186488438571327,-2.48495946124658,-0.145380006307159,0.194352041179642,-0.280414237901954,-0.00814844203009125,-0.0101117994730471,0.00167851802117985
3.51,2,0.338582516963205,-0.45158238471633,0.0177617725150304,0.0372529272337006,-0.00834172592343923,-0.011200292977691,0.0717286701050854,-0.298521886857713,-0.0423698639891761,-0.0144047364726707,-2.17890967538479,0.375082654296498,0.0567339091158788,-0.281634978280994,0.021739351583402,-0.010661132643615,0.00167851802117985
3.54,2,0.21540981271808,-0.413708914456618,0.032959990234077,0.0369172236294646,0.00011190120141199,-0.0116377249468469,0.124586728517513,-0.330790124210334,-0.0185654265978983,0.0398571733756523,-1.83916745506149,0.281696015299946,-0.0668863999348938,-0.282204657124546,0.0359406313262327,-0.0129398480178228,0.00167851802117985
3.57,2,0.120721050650553,-0.319996744692323,0.0343028046510208,0.0348623106580808,-0.0076398002054913,-0.0119937742240669,0.0925219478947315,-0.284076459039074,0.00645975117241941,-0.0235806349884538,-1.43198950163274,0.381684825179805,-0.164545630258085,-0.285185298216702,0.0356964832504247,-0.0101626636555071,0.00167851802117985
3.6,2,0.0571408225755587,-0.216233812473932,0.0283008311207414,0.0347300637836848,0.00011190120141199,-0.011047700430311,0.0719728181808934,-0.252744122643717,0.000559506007059949,-0.101901303140355,-0.933022044536678,0.178238268176316,-0.232927437157303,-0.289976704204433,0.0283110039572334,-0.0120548112430189,0.00167851802117985
3.63,2,0.0232245857112339,-0.116194138411613,0.0195725374106062,0.0347911008026368,0.000152592547379986,-0.0115054780724509,0.0534582557654551,-0.195572781558682,-0.0134790083518988,-0.162785729544969,-0.594368317718029,-0.0460015666168198,-0.277708263395082,-0.30085146641438,0.0168563900672424,-0.0120548112430189,0.00167851802117985
3.66,2,0.011342712688579,-0.0405692719300923,0.0102440463474431,0.0347911008026368,0.000152592547379986,-0.0118208360037029,0.0499994913581754,-0.149591560614846,-0.0419629505294961,-0.124820703756829,-0.376038900926745,-0.110436312957142,-0.305856501968444,-0.317128004801579,0.00636819564399141,-0.0120548112430189,0.00167851802117985
3.69,2,0.00772118289742729,-0.0114037497075309,0.000732444227423933,0.0347911008026368,0.000152592547379986,-0.0121056754254789,0.0754315825881731,-0.124240852076785,-0.0460727764722638,-0.0425631478825241,-0.258603676463108,-0.0984323658965829,-0.320271411277607,-0.32787052013713,0.000701925717947935,-0.0120548112430189,0.00167851802117985
3.72,2,-0.000305185094759972,-0.0258898688721376,0.00182093773206783,0.0347911008026368,0.000152592547379986,-0.0119937742240669,0.119174779503769,-0.129286578976816,-0.0352488784447768,-0.000915555284279916,-0.10462762332021,-0.0779035818557288,-0.318023214412875,-0.317555263934243,0.0032756533504237,-0.0120548112430189,0.00167851802117985
3.75,2,-0.0160730816573585,-0.0515966266874193,0.00737530645669932,0.0306609291868852,-0.0186366364533423,-0.00986765139723909,0.0823898027487004,-0.197281818089338,-0.054414502395703,-0.00445570238349559,0.107282733644622,0.0887173070467238,-0.316741437014883,-0.3004445529547,0.0101931821649831,-0.00714133121738334,0.0276294239122695
3.78,2,-0.0283313496302174,-0.0406404817855363,0.010457675913775,0.0116072064373709,-0.0832646666870123,0.00466933194982757,-0.116265348267057,-0.189387696971547,-0.0128279468164108,-0.0681885230058697,0.159866125471765,0.0947599719229713,-0.308745587532172,-0.280180262662638,0.010559404278695,0.0137638477736747,0.197149571214942
3.81,2,-0.0387178156885484,-0.0336822616250089,0.0153202917569506,-0.0295317443362733,-0.151768547624134,0.0454420606097598,-0.0510778120263273,-0.147353536586606,-0.0240587583035778,-0.0332651753288369,0.156600644957834,-0.112043621122878,-0.299284849594612,-0.260282194484288,0.0248420667134617,0.0692566708375296,0.315001881974751
3.84,2,-0.0392671488591164,-0.000467950478631957,0.032563249610889,-0.0583513901181066,-0.0707724234748375,0.0683919797357097,-0.0352488784447768,-0.205704926704713,-0.00595110934781945,-0.0452894680623798,0.333343506169825,-0.160150964893541,-0.284544409517706,-0.245063631092257,0.0274666585283975,0.0659911903235979,0.444624164555803
3.87,2,-0.0365916928617206,0.00940987375509914,0.0170903653065584,-0.0744041261024812,-0.054261909848323,0.0530004781233151,-0.0391552476577044,-0.162653482670573,-0.00550350454217149,-0.0364187546413567,0.321034374014506,-0.171269875179296,-0.262438835820592,-0.225602994883063,0.0164698222805465,0.0551062552771589,0.5684682760094
3.9,2,-0.0369070507929726,0.000712098554439934,0.0209051789910581,-0.0892768130537838,-0.0461948505101677,0.0571204769025747,-0.0348826563310648,-0.169937233598844,0.00442518387401959,-0.0419731233659881,0.270780561744031,-0.0662556840723899,-0.242113508509578,-0.205023346659749,0.022014018168686,0.0574765261797947,0.642475661488693
3.93,2,-0.0408846298613442,-0.011169774468215,0.0260017700735496,-0.100324513484095,-0.0306914476963612,0.054180527156387,-0.0271919919431135,-0.162816248054445,-0.00306202378409172,-0.0169377727591784,0.262967823318176,-0.000406913459679963,-0.224585711233863,-0.183467106133203,0.0290637938576413,0.054719687490463,0.69787692902412
3.96,2,-0.0475783562730796,-0.0191045869319742,0.0373546555986206,-0.10467848750267,-0.010549231442203,0.0458794925789158,-0.0407422101504562,-0.156712546159246,-0.0065207881913714,-0.021332438123722,0.265541550950652,-0.0054017761772515,-0.209082308420057,-0.161300495417137,0.0385041861222165,0.0442620115766879,0.748059531439151
3.99,2,-0.0524206264432712,-0.0131941689301228,0.0397147536647643,-0.107852412488174,-0.00734478794722332,0.043641468550676,-0.0345164342173528,-0.162816248054445,-0.00428276416313161,-0.0173548590553504,0.29952899767042,-0.0302336700542212,-0.191829177729626,-0.139205094556515,0.0386669515060884,0.043631295714184,0.816868597471033
4.02,2,-0.0568051189713228,-0.0139367859940387,0.0396842351552883,-0.107262387971638,0.00485244300668355,0.0399792474135563,-0.0229600919624419,-0.167332987456893,-0.00167851802117985,-0.00472019613228757,0.279264707378358,-0.0194097720267342,-0.173874121321248,-0.116855372783593,0.0412203334655802,0.0379751986246325,0.913022247993408
4.05,2,-0.0627562283191422,-0.0186976734722943,0.0468459120456557,-0.0999379456973988,0.032207200333669,0.0298674479405093,-0.0276802880947295,-0.164159062471389,-0.00131229590746788,0.00919624418876715,0.301075268817204,-0.00845362712485122,-0.157251706493322,-0.0942818486078473,0.0481683807896156,0.021342610960214,0.977233191930906
4.08,2,-0.0626748456272062,-0.000488296151615955,0.0390433464562924,-0.0844040243741162,0.0532751447085991,0.00810775068412325,-0.0280058188624734,-0.156305632699566,-0.00338755455183569,0.0283110039572334,0.308308155563016,-0.00671407208471938,-0.138391267637155,-0.0755231381166011,0.0385753959776605,0.00160730816573585,0.992380545467493
4.11,2,-0.0638752403332621,-0.00200404878892382,0.0415051728873562,-0.0722983489486373,0.0385753959776605,0.00395723339538764,-0.0223497217729219,-0.158909878841517,-0.00448622089297159,0.0362865077669607,0.304188156783756,-0.0136112552262947,-0.126366974903612,-0.0622781050040183,0.0405387534206163,0.00659199804681539,0.989888200526953
4.14,2,-0.0640380057171341,0.000101728364919991,0.0390433464562924,-0.0565202795495468,0.0578325754570147,-0.00354014709921567,-0.0193385621712902,-0.157078768272958,-0.00700908434298736,0.032329274371573,0.320301929787083,-0.00135298725343588,-0.103162734865363,-0.0388805810724204,0.0392162846766564,-0.00863673818170721,0.984598325551113
4.17,2,-0.0641702525915301,0.000152592547379986,0.0391247291482284,-0.0389009267454044,0.0595110934781945,-0.00986765139723909,-0.0168563900672424,-0.157485681732637,-0.00749738049460331,0.0332956938383129,0.334625283567817,0.00584938098289946,-0.0850856044190802,-0.0207017222612181,0.0392162846766564,-0.0168055258847825,0.98325551113417
4.2,2,-0.0642414624469741,0.000152592547379986,0.0391654204941964,-0.0224819686473179,0.0535192927844071,-0.0160629088208665,-0.0169377727591784,-0.159560940377005,-0.00554419588813949,0.032736187831253,0.342336293628753,0.000905382447787917,-0.0671712393566698,-0.00269580167037975,0.0392162846766564,-0.0204067100029501,0.983825189977722
4.23,2,-0.0642414624469741,0.000152592547379986,0.0392061118401644,-0.00569678843551948,0.0566321807509588,-0.021515549180578,-0.0102237006744591,-0.159560940377005,-0.00473036896877956,0.0407727286599322,0.352010661132644,0.000122074037903989,-0.0486566769412315,0.0156763410341706,0.0392162846766564,-0.0261645354574216,0.987955361593473
4.26,2,-0.0642312896104821,0.000152592547379986,0.0391450748212124,0.0119429100416069,0.0600400809757785,-0.0299081392864772,-0.00635802280749942,-0.160374767296365,-0.00350962858973968,0.0588193405967386,0.364604632709738,0.00118004903307189,-0.0298165837580493,0.0344757428713848,0.0392162846766564,-0.0358592486342967,0.990956348358613
4.29,2,-0.0640888698995941,0.000152592547379986,0.0391755933306884,0.0314442375967691,0.0658589434492019,-0.0415865555792922,-0.00371308531957966,-0.158950570187485,-0.00493382569861955,0.076153853979105,0.380179245378989,0.00346893724377168,-0.0086265653452152,0.0555742057557909,0.0392162846766564,-0.0475681834365876,0.993641977192501
4.32,2,-0.0639566230251981,0.000152592547379986,0.0391857661671804,0.0496637877539394,0.0576799829096347,-0.0549129713838109,-0.00302133243812372,-0.161839655751213,-0.00664286222927539,0.0854416536963001,0.402274646239611,-0.0118106631672109,0.00963367615792311,0.0738344472589292,0.0392162846766564,-0.0561337117628508,0.992533138014873
4.35,2,-0.0638040304778181,0.000152592547379986,0.0391349019847204,0.0675984984893338,0.0614439324116743,-0.0688599302143417,0.00894192327646718,-0.164362519201229,-0.0100609352905871,0.0687683746859137,0.454807173884294,-0.0193182164983062,0.0396944079917803,0.103752759381898,0.0392162846766564,-0.0694804732403536,0.991007212541073
4.38,2,-0.0637836848048341,0.000152592547379986,0.0391857661671804,0.0875372580136519,0.06528926460565,-0.0891750846888638,0.000559506007059949,-0.164443901893165,-0.010386466058331,0.101351969969787,0.519323302916552,0.00291960407320373,0.06564531388287,0.129642628254036,0.0388907539089124,-0.0902534053570157,0.98233995584989
4.41,2,-0.0620848211106703,0.00596128218431145,0.0371613717052726,0.108757794935962,0.0723390402946053,-0.110517695649078,0.00776187424339529,-0.167984048992381,-0.00827051606799524,0.115380311492253,0.606341746269112,0.00245165359457177,0.0960620949939472,0.158350372834457,0.0355642363760287,-0.113284707174902,0.976551611885942
4.44,2,-0.0579343038219347,0.0132958972950428,0.0313018178858811,0.128910184026612,0.0620136112552263,-0.131565294351024,-0.00509659108249153,-0.194881028677226,-0.0186468092898343,0.137801243120619,0.735272275968708,0.0468459120456557,0.136316008992787,0.194463942381054,0.0304269539475692,-0.134464552751244,0.957935321105584
4.47,2,-0.0424715923540961,0.0491551459293395,0.0161748100222785,0.143396303191219,0.0388500625629444,-0.137089144566179,-0.0363882361318807,-0.246152124596901,-0.0176702169866024,0.155807163711458,1.00331634469639,0.0935290587074394,0.187790561642303,0.230455437889747,0.0136214280627867,-0.138594724366995,0.910977507858516
4.5,2,-0.00795515813674327,0.101840266121403,0.010793379518011,0.14900153609831,0.00617491175064343,-0.135217342651652,0.0346181625822728,-0.241391237118646,-0.0467238380077517,0.165318765831477,1.05284788557594,0.153335164443902,0.252499974567909,0.260628070925016,0.0203660186569821,-0.145329142124699,0.722952970976898
4.53,2,0.0822473830378124,0.281401003041678,0.000122074037903989,0.127557196773176,-0.102908413953063,-0.139835810419019,-0.0553504033529669,-0.322041484827214,-0.0532344533626311,0.225623340556047,1.22376171147801,0.512273527227597,0.319335510320343,0.237200028483942,0.0206508580787581,-0.154159164199754,0.440890733563239
4.56,2,0.205593025503301,0.404777164016643,0.00616473891415143,0.0700298064109215,-0.226599932859279,-0.126031271299376,-0.0500605283771274,-0.30263171280048,0.0612303028453424,0.181666514074119,1.28717917416913,0.0970081687877031,0.395082450839768,0.189591153701387,0.0257576219977416,-0.139876501764987,0.298298084454889
4.59,2,0.347320983509832,0.473291217790256,0.00807723217464726,-0.0238451287372458,-0.354187648141931,-0.097557501958271,-0.0887173070467238,-0.292499567654449,0.0408439385153762,0.158492792545345,1.27168594419182,0.0938545894751834,0.472945341349528,0.12569556769514,0.0224616229743339,-0.0993886125268309,0.183701081372519
4.62,2,0.498021383302306,0.511693675547553,-0.0118208360037029,-0.142979216895047,-0.41137933489995,-0.0308033488977732,-0.0248318938769697,-0.246762494786421,0.0129703665272988,-0.0361440880560727,1.13149408449558,-0.251218197169917,0.545050406404818,0.0471205786309397,-0.0172429578539384,0.0950448113447473,0.0828577532273324
4.65,2,0.63060396130253,0.450209051789911,-0.0310881883195491,-0.23444318979461,-0.250811283710237,0.10691651153091,-0.0559607735424869,-0.054658650471511,-0.00285856705425174,-0.0168258715577665,0.696127201147496,-0.466963713492233,0.601448611916461,-0.0289518926562293,-0.0345469527268288,0.191523992634866,0.0230414746543779
4.68,2,0.733095288959421,0.351145970030824,-0.0310983611560411,-0.21388388724428,0.162277087720369,0.097567674794763,-0.0461541591641998,-0.076469211910357,-0.00403861608732363,-0.123121840062665,0.131331319111708,-0.386791589098788,0.624083173111159,-0.108757794935962,-0.0334279407127089,0.113803521835994,0.00618508458713543
4.71,2,0.797316405733411,0.223883785515915,-0.0580767235328227,-0.119500310271513,0.355316832992543,0.0398063091931923,-0.0792362234361807,-0.00513728242845953,-0.0101423179825231,-0.133315022227648,-0.461948505101678,-0.159591458886481,0.614205348877427,-0.182826217434207,-0.076123335469629,0.00246182643106377,0.00256355479598376
4.74,2,0.78764203822952,-0.0301522873622852,-0.109327473779514,-0.0162867112236905,0.34436068809066,-0.0159916989654225,-0.258644367809076,0.128126875616728,-0.0146590573849707,-0.143264056316823,-1.6184372488581,-0.00231940672017579,0.552893663340149,-0.234524572486546,-0.114301990824101,-0.0862859991251361,0.00182093773206783
4.77,2,0.704336680196539,-0.278481398968474,-0.0584734641560106,0.0377005320393485,0.126875616728212,-0.0461643320006917,-0.10584836369925,-0.0864385916725161,-0.0282092755923134,-0.142674031800287,-2.43926307972452,-0.00771101006093529,0.425224565365561,-0.27886796675517,-0.0610878831344544,-0.0564083783481348,0.00167851802117985
4.8,2,0.577237261065503,-0.426842046367789,-0.0250251777703177,0.0319935707673371,-0.0454827519557278,-0.0180567847732983,-0.0527868485569831,-0.17897071240374,-0.0349233476770328,-0.0414441358684042,-2.96101769056266,0.112267423525702,0.262042095197404,-0.314971363465275,-0.0168665629037344,-0.00250251777703177,0.00167851802117985
4.83,2,0.431470686971648,-0.486353139845983,0.010762861008535,0.0199997965432702,-0.0277616707866654,0.00479140598773156,0.137689341919207,-0.407778150781782,-0.011240984323659,0.011047700430311,-2.87397890153712,0.276121300902331,0.0808943957843766,-0.350372834457432,0.0134077984964548,0.00241096224860378,0.00167851802117985
4.86,2,0.281584114098534,-0.496139408551286,0.0360830510371207,0.0190232042400382,-7.12098554439934e-05,-0.00269580167037975,0.11123996704001,-0.380921862442905,0.0137841934466587,-0.0290231025116733,-2.55039114556312,0.369324828842026,-0.0804162724692526,-0.361929176712343,0.0388907539089124,-0.00625629444257942,0.00167851802117985
4.89,2,0.155023855301574,-0.425682343007701,0.0422172714417961,0.0188807845291503,0.000152592547379986,-0.00401827041433963,0.101677500737531,-0.340433973204749,0.0225328328297779,0.0647297585985901,-1.99520859401227,0.15632597837255,-0.214524775943276,-0.369457075716422,0.0468967762281157,-0.00610370189519944,0.00167851802117985
4.92,2,0.0620543026011943,-0.315754671875159,0.0408948026978362,0.0187180191452783,0.000152592547379986,-0.00515762810144353,0.115309101636809,-0.261085848567156,0.0180567847732983,-0.156305632699566,-1.40746279285053,-0.210272530289621,-0.315693634856207,-0.377676727601957,0.043488876003296,-0.00610370189519944,0.00167851802117985
4.95,2,0.00421155430768761,-0.197383546454258,0.0337229529709769,0.0186061179438663,0.000152592547379986,-0.00567644276253548,0.0958179469181392,-0.204321420941801,0.00190232042400382,-0.153060497858618,-0.924364960681987,-0.225826797285887,-0.385214799442529,-0.389273761202836,0.033143101290933,-0.00610370189519944,0.00167851802117985
4.98,2,-0.0243029063793858,-0.097933896908475,0.0233059684031699,0.0183619698680583,0.000152592547379986,-0.00585955381939146,0.0903246152124597,-0.180069378744875,0.000518814661091952,-0.188309376303395,-0.526240831731112,-0.0629902035584582,-0.427350688192389,-0.402834152246671,0.0207322407706941,-0.00610370189519944,0.00167851802117985
5.01,2,-0.0368460137740206,-0.0425631478825241,0.0146081932025107,0.0180262662638223,0.000152592547379986,-0.00603249203975545,0.0730307931760613,-0.168675801873836,0.0021464684998118,-0.246284371471297,-0.246345408490249,0.175216935738192,-0.449100212612283,-0.41204056927193,0.0126550085960468,-0.00610370189519944,0.00167851802117985
5.04,2,-0.0440585548468479,-0.0224717958108259,0.011240984323659,0.0177922910245064,0.000152592547379986,-0.00604266487624744,0.0700196335744296,-0.161595507675405,-0.00346893724377168,-0.322000793481246,-0.0240384126305938,0.41783908607237,-0.456546728924426,-0.412264371674754,0.0100304167811111,-0.00610370189519944,0.00167851802117985
5.07,2,-0.0480361339152196,-0.0125634530676188,0.00911486149683116,0.0175379701122064,0.000152592547379986,-0.00600197353027945,0.0621255124566383,-0.15561387981811,-0.0123803420107629,-0.364930163477482,0.159154026917325,0.594876959542629,-0.447248756370739,-0.398988820052695,0.00893175043997518,-0.00576799829096347,0.00167851802117985
5.1,2,-0.0496230964079714,-0.00363170262764367,0.00831120741396323,0.0173955504013184,0.000152592547379986,-0.00582903530991546,0.0536617124952951,-0.15622425000763,-0.0169784641051464,-0.378480381684825,0.304859563992228,0.642780846583453,-0.38771731721956,-0.337850072735781,0.00783308409883928,-0.00564592425305948,0.00167851802117985
5.13,2,-0.0524816634622232,-0.00737530645669932,0.00814844203009125,0.0172429578539384,0.000152592547379986,-0.00576799829096347,0.0194402905362102,-0.162165186518957,-0.0424512466811121,-0.34334340444146,0.389945168411308,0.639779859818313,-0.305612353892636,-0.252917060864081,0.00839259010589923,-0.00564592425305948,0.00167851802117985
5.16,2,-0.0580360321868547,-0.0169682912686544,0.00929797255368714,0.0144047364726707,-0.0138960946480707,-0.00315357931251971,-0.183243303730379,-0.21713919492172,-0.199967446923226,-0.242825607064018,0.294005147455265,1.06730348623107,-0.274269844660787,-0.216030355744092,0.0103050833663951,-0.00208543148085981,0.0270902635781935
5.19,2,-0.0624713888973663,-0.0129093295083468,0.0116275521103549,-0.000264493748791976,-0.0633360799991862,0.00592059083834346,-0.0917284666483556,-0.163752149011709,-0.0526647745190792,-0.219824823755608,0.309325439212216,0.422823775953449,-0.259030935595772,-0.19632557145909,0.0115868607643869,0.0134077984964548,0.160863063447981
5.22,2,-0.0603656117435224,0.00480157882422356,0.0129296751813308,-0.0320037436038291,-0.116295866776533,0.0334686320586769,-0.0564083783481348,-0.131280454929248,-0.0582394889166946,-0.0231330301828059,0.260485651214128,-0.305083366395052,-0.257403281757052,-0.196793521937722,0.021912289803766,0.0579749951679027,0.243669952492854
5.25,2,-0.0558183538315989,0.0172531306904304,0.032166508987701,-0.054119490137435,-0.054628131962035,0.0579241309854427,-0.0387076428520564,-0.187027598905403,0.0188706116926583,-0.0159510076194545,0.335856196783349,-0.374553666798914,-0.236548966948454,-0.180516983550523,0.0283516953032014,0.0550757367676829,0.314554277169103
5.28,2,-0.0476800846379996,0.0282703126112654,0.0176396984771264,-0.0671814121931618,-0.0479954425692516,0.0454725791192358,-0.0488804793440555,-0.169733776869004,0.0129703665272988,-0.0533056632180751,0.340912096519873,-0.0260017700735496,-0.215247047334208,-0.167332987456893,0.0144556006551307,0.0477512944934436,0.41733044424777
5.31,2,-0.0462558875291198,0.00595110934781945,0.0198268583229062,-0.0840174565874203,-0.053997416099531,0.0591855627104505,-0.043061616870632,-0.161025828831853,-0.0167750073753065,-0.0714438306833094,0.266233303832108,-0.0231533758557899,-0.197302163762322,-0.150812300993886,0.0240180669576098,0.0599993896298105,0.519964191615548
5.34,2,-0.0465915911333557,0.000345876440727968,0.0277311522771895,-0.0997243161310668,-0.0525121819716992,0.0635598824020101,-0.054251737011831,-0.150852992339854,-0.0129500208543148,-0.087160863063448,0.268237352621031,-0.0722474847661774,-0.187444685201575,-0.140619118828903,0.0281685842463454,0.0638447218237861,0.638518428093305
5.37,2,-0.0471409243039237,0.000152592547379986,0.0285348063600574,-0.115319274473301,-0.0522375153864152,0.0690125227617216,-0.0457472457045198,-0.155939410585854,-0.00851466414380322,-0.107638782921842,0.272062339142023,-0.100151575263731,-0.184169031851151,-0.136804305144403,0.0286873989074374,0.0692261523280536,0.75858841720837
5.4,2,-0.0476800846379996,0.000152592547379986,0.0289315469832453,-0.130151270078636,-0.0485854670857875,0.0714540035198014,-0.0293079419334493,-0.176203700877916,0.00466933194982757,-0.0785241248817408,0.278959522283598,-0.0861537522507401,-0.169703258359528,-0.121799371318705,0.0289620654927213,0.0733258054343293,0.878444776757103
5.43,2,-0.0487278867966755,-0.00135298725343588,0.0297758924120813,-0.137902971485539,-0.0137943662831507,0.0618813643808303,-0.022064882351146,-0.17490157780694,0.00182093773206783,-0.0507726269315673,0.267789747815383,-0.0183823155410423,-0.153029979349142,-0.104108808659118,0.0296741640471613,0.0622679321675263,0.978291166926074
5.46,2,-0.054160181483403,-0.0163579210791345,0.0366018656982126,-0.134769737846004,0.0126143172500788,0.0440890733563239,-0.0288196457818333,-0.161514124983469,0.000315357931251971,-0.0188502660196743,0.210852381969665,-0.00264493748791976,-0.138737144077883,-0.0843836787011322,0.0399589017405723,0.0412203334655802,1.02596107872758
5.49,2,-0.0617694631794183,-0.0231737215287739,0.0489313435265155,-0.128014974415316,0.0276192510757775,0.0376801863663645,-0.0409863582262642,-0.158625039419741,-0.00383515935748365,-0.0152083905555386,0.230384228034303,0.000417086296171962,-0.126448357595548,-0.0644449191768141,0.0501317382325714,0.0338145084994049,1.03352966907763
5.52,2,-0.0620441297647023,-0.00141402427238787,0.0404370250556963,-0.115471867020681,0.0444959868160039,0.0265409304076256,-0.0284127323221534,-0.154067608671326,-0.00530004781233151,-0.0196030559200822,0.264168218024232,-0.00768049155145929,-0.113498336741234,-0.0512202317372153,0.0391043834752444,0.0187078463087863,1.02869757174393
5.55,2,-0.0631021047598702,-0.00118004903307189,0.0400504572690003,-0.102572710348827,0.043794061098056,0.0185959451073743,-0.033051545762505,-0.15520696635843,-0.00485244300668355,-0.0286772260709454,0.28242845952737,0.00011190120141199,-0.107760856959746,-0.0444451226335439,0.0394502599159724,0.0145166376740827,1.02317372152877
5.58,2,-0.0633259071626942,0.000132246874395988,0.0385245317952005,-0.0874762209947,0.054485712251147,0.00995920692566708,-0.0280058188624734,-0.15683462019715,-0.00493382569861955,-0.0334177678762169,0.290271716462701,0.00368256681010366,-0.098381501714123,-0.0348623106580808,0.0386059144871364,0.00363170262764367,1.02531001719209
5.61,2,-0.0634784997100742,0.000152592547379986,0.0386466058331044,-0.0728883734651733,0.0455539618111718,0.000559506007059949,-0.0284534236681214,-0.158055360576189,-9.15555284279916e-05,-0.0280159916989654,0.284503718171738,-0.00315357931251971,-0.0930814539017914,-0.0294503616443373,0.0386059144871364,0.00134281441694388,1.02696818954029
5.64,2,-0.0633259071626942,0.000152592547379986,0.0386974700155644,-0.0574460076703187,0.0549943540757469,-0.00276701152582375,-0.0184026612140263,-0.157811212500381,0.00173955504013184,-0.0117699718212429,0.279539373963642,0.00126143172500788,-0.0791344950712607,-0.0155135756502986,0.0386059144871364,-0.00738547929319132,1.02747683136489
5.67,2,-0.0633259071626942,0.000152592547379986,0.0386160873236284,-0.0420341603849401,0.0512304045737073,-0.00714133121738334,-0.0190537227495142,-0.158136743268125,0.000722271390931934,0.00260424614195176,0.268949451175471,-0.00174972787662384,-0.0683309427167577,-0.00471002329579557,0.0386059144871364,-0.011220638650675,1.02702922655924
5.7,2,-0.0633259071626942,0.000152592547379986,0.0386771243425804,-0.0281685842463454,0.0445773695079399,-0.010640786970631,-0.0194199448632262,-0.158543656727805,-0.000254320912299977,0.00938952808211514,0.269000315357931,0.00173955504013184,-0.0587583035777866,0.00472019613228757,0.0386059144871364,-0.0132958972950428,1.02725302896207
5.73,2,-0.0633259071626942,0.000152592547379986,0.0387076428520564,-0.0154321929583626,0.0416679382712282,-0.0135705638803268,-0.0164494766075625,-0.158787804803613,-0.000620543026011943,0.0180873032827743,0.273649301634775,8.13826919359925e-05,-0.0498570716472874,0.0135909095533107,0.0386059144871364,-0.0164291309345785,1.0256864121423
5.76,2,-0.0633259071626942,0.000152592547379986,0.0386669515060884,-0.00237027090263578,0.0446994435458439,-0.0172429578539384,0.00352997426272368,-0.161839655751213,0.00137333292641987,0.0251879431541897,0.286416211432234,-0.00276701152582375,-0.0286060162155014,0.0348216193121128,0.0386059144871364,-0.021902116967274,1.02558468377738
5.79,2,-0.0633259071626942,0.000152592547379986,0.0386466058331044,0.010640786970631,0.043285419273456,-0.0225531785027619,-0.00521866512039552,-0.160252693258461,0.000233975239315978,0.0491449730928475,0.296599220760725,-0.00339772738832769,-0.0130517492192348,0.0503453677989034,0.0386059144871364,-0.0257576219977416,1.02348907946003
5.82,2,-0.0633259071626942,0.000152592547379986,0.0387178156885484,0.0268359426658935,0.0568559831537828,-0.032105471968749,-0.00530004781233151,-0.160374767296365,-0.000620543026011943,0.0573646249783827,0.326415804518774,-0.00271614734336375,0.00316375214901171,0.0666524246955779,0.0386059144871364,-0.0411796421196122,1.02700888088626
5.85,2,-0.0614744509211503,0.00644957833592741,0.0367239397361166,0.043173518072044,0.0514745526495153,-0.0458184555599638,-0.0124617247026989,-0.165054272082685,0.00137333292641987,0.0931933551032034,0.361990213731295,-0.00181076489557583,0.0177515996785384,0.0794701986754967,0.0350454217149368,-0.0490839360738955,1.02851446068707
5.88,2,-0.0576901557461267,0.0120039470605589,0.0310169784641051,0.0570797855566067,0.0466831466617837,-0.054607786289051,0.000356049277219967,-0.156509089429406,0.000152592547379986,0.122023173721529,0.400423189998067,0.0097760958688111,0.0379548529516485,0.0958789839370912,0.0303455712556332,-0.0560116377249468,1.01254310739463
5.91,2,-0.0474766279081596,0.033092237108473,0.021566413363038,0.0701417076123336,0.0403658152002523,-0.0621865494755903,-0.00717184972685934,-0.178685872981964,-0.0102237006744591,0.132531713817764,0.443088066245511,0.0408744570248522,0.0631631417788222,0.11083305358033,0.0149947609892066,-0.0635090182195502,0.932889797662282
5.94,2,-0.0354726808476007,0.0380870998260445,0.00566626992604348,0.0780358287301248,0.0206406852422661,-0.0610166732790104,-0.0225938698487299,-0.209367147841833,-0.00232957955666779,0.167709382407097,0.500259407330546,0.0716472874131494,0.0913215531886756,0.126997690766116,0.00192266609698782,-0.0645568203782261,0.681976785587125
5.97,2,-0.0246386099836217,0.0243741162348298,0.00474054180527156,0.0742820520645772,-0.0239875484481338,-0.0471510971404157,-0.0752891628772851,-0.230404573707287,-0.00513728242845953,0.157770521154413,0.425957009592985,0.0582089704072186,0.122104556413465,0.146956795963418,0.00510676391898353,-0.0426547034109521,0.321807509587898
6,3,0.00320444349497971,0.0741498051901812,-0.0167953530482905,0.0573951434878587,-0.0685242266101057,-0.0284127323221534,-0.131890825118768,-0.273415326395459,0.00707012136193935,0.0892869858902758,0.0969878231147191,0.0751060518204291,0.134484898424228,0.131412701803644,-0.0345672983998128,-0.0086570838546912,0.0825525681325724
6.03,3,0.0195216732281462,0.0404166793827123,-0.0393587043875444,0.0318816695659251,-0.0880865911842199,-0.0075584175135553,-0.188166956592507,-0.217301960305592,0.0142317982523067,-0.0241808323414818,-0.415326395458846,-0.0860418510493281,0.126895962401196,0.107445499028494,-0.0352997426272368,0.0279956460259814,0.0182805871761223
6.06,3,0.0207017222612181,-0.00391654204941964,-0.0177414268420464,0.0158797977640105,-0.0361542608925647,0.0187180191452783,-0.0821660003458764,-0.233659881384726,-0.0166936246833705,-0.00597145502080345,-0.595904416028321,-0.322712892035686,0.0930611082288074,0.0724407686595253,-0.011281675669627,0.0236009806614378,0.00494399853511155
6.09,3,0.0229295734529659,-0.000528987497583951,-0.011159601631723,0.0179957477543463,0.011139255958739,0.00410982594276762,-0.0821253089999085,-0.219865515101576,-0.0278430534786014,0.0342519404685609,-0.635547959837642,-0.495376445814386,0.0564999338765628,0.0336924344615009,-0.0127058727785068,-0.0228685364340139,0.00194301176997182
6.12,3,0.0314137190872931,0.0202541174555701,-0.0171107109795424,0.010376293221839,-0.043183690908536,0.000671407208471938,0.487350077822199,-0.283791619617298,-0.0772016561377809,0.0403759880367443,0.241686249376914,-0.241075879187394,0.0384329762667725,0.00707012136193935,0.00194301176997182,0.032146163314717,0.00167851802117985
6.15,3,0.112450534582558,0.263964761294392,0.0567135634428948,-0.00128177739799188,0.00504572690003154,0.135807367168188,0.279457991271706,-0.283832310963266,-0.0383414207383445,0.0985747856074709,1.22533850113427,-0.121005890072329,0.0876389863785719,-0.0245877458011617,0.0790734580523087,0.179530218410799,0.00167851802117985
6.18,3,0.261268959624012,0.499455753247678,1.01728364919991e-05,0.0708741518397575,0.301136305836156,0.0493077384767195,-0.0256457207963296,-0.295917640715761,-0.0255643381043936,-0.0510066021708833,1.64189580980865,0.022014018168686,0.1782586138493,-0.0827560248624124,-0.00619525742362743,0.032909126051617,0.00152592547379986
6.21,3,0.396140425834936,0.466363516139205,-0.0119937742240669,0.17017120883816,0.34369945371868,0.0150456251716666,-0.1298155664744,-0.145441043326111,-0.000701925717947935,0.0563575141656748,1.39024018066958,-0.216345713675344,0.272560808130131,-0.123345642465489,-0.011139255958739,-0.0445163324889879,0.00166834518468785
6.24,3,0.515508489232053,0.411002939949746,-0.00364187546413566,0.254361603645945,0.264035971149836,-0.0278430534786014,-0.101982685832291,-0.119032359792881,-0.00660217088330739,-0.0157272052166306,1.0067344177577,-0.644876450900805,0.341390219834997,-0.173874121321248,-0.00205491297138381,-0.0691244239631336,0.00167851802117985
6.27,3,0.619993692841375,0.362020732240771,0.00114953052359589,0.286894334747358,0.065116326385286,-0.0333058666748049,-0.0630817590868862,-0.0960010579749952,-0.0208848333180741,-0.0745567186498611,0.761925107577746,-0.698558509069084,0.394217759737948,-0.225521612191127,0.00363170262764367,-0.021942808313242,0.00167851802117985
6.3,3,0.711834060691143,0.319864497817927,0.00356049277219967,0.280220954008606,-0.032705669321777,-0.00681580044963937,-0.0362661620939767,-0.0961638233588672,-0.021332438123722,-0.127974283069348,0.533097323526719,-0.659118421989603,0.432376069419436,-0.27917315184993,0.0065207881913714,0.0237840917182938,0.00167851802117985
6.33,3,0.792311370179347,0.281929990539262,0.00601214636677145,0.27769809055859,0.00285856705425174,0.0121056754254789,-0.0307321390423292,-0.11337626270333,-0.0284127323221534,-0.113254188665426,0.328877630949838,-0.442192856634215,0.458001444542782,-0.334086123233741,0.00725323241879533,0.0158492792545345,0.00167851802117985
6.36,3,0.864019694611448,0.254341257972961,0.00699891150649536,0.280872015544094,0.00895209611295918,0.0120242927335429,-0.0295520900092573,-0.111707917518642,-0.0256864121422976,-0.0391043834752444,0.0642719809564501,-0.222927538885667,0.469435712759789,-0.394390697958312,0.00600197353027945,0.00960315764844712,0.00167851802117985
6.39,3,0.922798343862219,0.21581672617776,0.00693787448754336,0.280943225399538,0.000172938220363984,0.0116275521103549,0.0154932299773146,-0.138116601051871,-0.0240994496495458,0.087150690226956,-0.10752688172043,-0.0489415163630075,0.466750083925901,-0.455783766187526,0.0054017761772515,0.0130008850367748,0.00167851802117985
6.42,3,0.961729789117099,0.149123610136214,0.010488194423251,0.280994089581998,0.000152592547379986,0.0123905148472549,0.0124413790297149,-0.120985544399345,-0.0155135756502986,0.190547400331634,-0.251991332743309,0.0712200282804854,0.456831568346202,-0.504694764041058,0.0162460198777225,0.0130008850367748,0.00167851802117985
6.45,3,0.988891262550737,0.105166783654286,0.021708833073926,0.280943225399538,0.000152592547379986,0.0129907122002828,0.043692332733136,-0.143894772179327,-0.00147506129133986,0.220160527359844,-0.462029887793613,0.162836593727429,0.433830785037792,-0.554806156600645,0.0237942645547858,0.0132145146031068,0.00167851802117985
6.48,3,1.00563575141657,0.0686768191574857,0.0120955025889869,0.280973743909014,0.000152592547379986,0.00469985045930357,0.0577308470920947,-0.138808353933327,0.00462864060385957,0.227240821558275,-0.556566057313761,0.261431725007884,0.403475040945667,-0.601926735231585,-0.0115665150914029,-0.0361644337290567,0.00158696249275185
6.51,3,0.999532049521368,-0.0119937742240669,-0.0272428561255735,0.273069449954731,-0.0407829014964243,-0.0372936185796686,-0.0128686381623788,-0.0897752820418917,0.0133772799869788,0.188828190964487,-0.819137140008749,0.312285734631387,0.362875250506099,-0.636422823775953,-0.0243537705618458,-0.0551774651326029,0.00151575263730786
6.54,3,0.971485539312927,-0.0885647144993438,-0.011281675669627,0.244575334940642,-0.112938830734174,-0.0282804854477574,-0.0118513545131789,-0.11256243578397,0.0170395011240984,0.107008067059338,-1.11991739656768,0.296873887346009,0.30308949044262,-0.668151900794498,-0.00472019613228757,-0.0132450331125828,0.00164799951170385
6.57,3,0.933072908719138,-0.125105543178604,0.00485244300668355,0.214433220414848,-0.0889919736320078,0.00295012258267973,0.0589108961251666,-0.162409334594765,0.0131331319111708,0.0125125888851588,-1.16494237088127,0.234270251574246,0.233263140761539,-0.699596138391268,0.00683614612262337,0.000701925717947935,0.00167851802117985
6.6,3,0.894639932452366,-0.125115716015096,0.0101728364919991,0.207475000254321,-0.00996937976215908,-0.00737530645669932,0.0725018056784773,-0.172744936470636,0.00625629444257942,-0.0846278267769402,-1.07855464339122,0.110609251177506,0.165715506454665,-0.728670105085401,0.0117089348022909,-0.0231838943652659,0.00167851802117985
6.63,3,0.859248634296701,-0.115156509089429,0.0127363912879828,0.206457716605121,-0.00670389924822738,-0.0209051789910581,0.0717286701050854,-0.167699209570605,0.00202439446190781,-0.175695059053316,-0.93842382071393,-0.000691752881455936,0.105400758893602,-0.753624073000275,0.0133976256599628,-0.0268969796848455,0.00167851802117985
6.66,3,0.829635507268492,-0.097415082247383,0.0132857244585508,0.204158655557929,-0.00832138025045523,-0.0241401409955138,0.0659504989776299,-0.165257728812525,-0.00924710837122715,-0.230699585965555,-0.792219814650919,-0.0705282753990295,0.0535498112938831,-0.775892412081261,0.0133264158045188,-0.0248827580594297,0.00167851802117985
6.69,3,0.809422081158889,-0.0663777581102939,0.010640786970631,0.198085472172206,-0.0240994496495458,-0.0208136234626301,0.0704672383800775,-0.165339111504461,-0.021210364085818,-0.238339386171046,-0.607643869340088,-0.0598569699189225,0.0119836013875749,-0.797214677368491,0.00926745404421115,-0.0168462172307505,0.00167851802117985
6.72,3,0.796451714631591,-0.04345835749382,0.00712098554439934,0.19073051138849,-0.0242927335428938,-0.0162053285317545,0.0509353923154393,-0.134210231838944,-0.0268664611753695,-0.201920631529689,-0.47320983509832,6.10370189519944e-05,-0.0194911547186702,-0.815851313821833,0.00551367737866349,-0.0115563422549109,0.00153609831029186
6.75,3,0.787377544480728,-0.0298877936134933,0.00456760358490758,0.185552537614063,-0.0150557980081586,-0.0124718975391909,0.0625731172622862,-0.130995615507472,-0.0290637938576413,-0.151839757479578,-0.355581326741335,0.0802026429029206,-0.0446587521998759,-0.831965086825159,0.00372325815607166,-0.011240984323659,0.00153609831029186
6.78,3,0.7783847570218,-0.0291044852036093,0.00396740623187963,0.182653279213843,-0.00730409660125533,-0.0119734285510829,0.0534582557654551,-0.108452609841202,-0.0241808323414818,-0.10783206681519,-0.256803084404024,0.154271065401166,-0.0623594876959543,-0.840662862025819,0.00402844325083163,-0.0128381196529028,0.00167851802117985
6.81,3,0.769595426292713,-0.0286263618884854,0.00444552954700359,0.180740785953347,-0.0076398002054913,-0.0134281441694388,0.0728273364462213,-0.10828984445733,-0.0209255246640421,-0.0822270373648284,-0.138045391196427,0.165918963184505,-0.0742210150456252,-0.84372488580991,0.00486261584317555,-0.0122074037903989,0.00167851802117985
6.84,3,0.758110293893246,-0.0374055197810806,0.00626646727907142,0.178706218654948,-0.0076499730419833,-0.0129093295083468,0.204423149306721,-0.125909197261472,-0.0988494521927549,0.0456963815220598,0.169825332397432,-0.054699341817479,-0.0737937559129612,-0.831822667114272,0.00789412111779127,-0.010976490574867,0.00167851802117985
6.87,3,0.754916023234758,-0.0116784162928149,0.00622577593310343,0.179774366486607,0.00155644398327586,-0.0134790083518988,0.0717286701050854,-0.10767947426781,-0.0662556840723899,-0.0588091677602466,0.318511510564491,-0.0188197475101983,-0.0574460076703187,-0.812311166722617,0.00420138147119561,-0.0153101189204586,0.00167851802117985
6.9,3,0.753501998962371,-0.00629698578854742,0.00133264158045188,0.17861466312652,-0.00129195023448388,-0.0127872554704428,-0.0584429456465346,-0.179743847977131,-0.0528682312489191,-0.00187180191452783,0.291238135929441,0.0706706951099175,-0.032807397686697,-0.786238186793624,0.00172938220363984,-0.0124617247026989,0.00191249326049582
6.93,3,0.751467431663971,-0.00666320790225939,0.00334686320586769,0.176142663858964,-0.0142826624347667,-0.0101931821649831,-0.0953093050935392,-0.373800876898506,-0.00460829493087558,-0.0119429100416069,0.292947172460097,0.0279244361705374,-0.0167444888658305,-0.768150883510849,0.00310271513005971,-0.00853500981678721,0.0585955381939146
6.96,3,0.757683034760582,0.0102847376934111,0.000620543026011943,0.171707307148452,-0.00908434298735517,-0.00158696249275185,0.0294503616443373,-0.054740033163447,-0.0360220140181687,-0.0225023143203019,0.254676961577197,-0.0384126305937885,0.00229906104719179,-0.755190689820042,-0.000783308409883928,-0.00561540574358348,0.0506302072206793
6.99,3,0.765790785444706,0.0125024160486668,-0.00173955504013184,0.171819208349864,0.000152592547379986,-0.00473036896877956,-0.00517797377442752,-0.203670359406313,-0.00721254107282734,-0.0131433047476628,0.176803898230944,-0.0592465997294026,0.0135298725343588,-0.752026937671031,-0.00255338195949177,-0.0100711081270791,0.0376801863663645
7.02,3,0.770134586626789,0.00307219662058372,-0.000162765383871985,0.171819208349864,0.000152592547379986,-0.00728375092827133,0.0144352549821467,-0.151097140415662,-0.00965402183090711,0.00185145624154383,0.178604490290028,-0.0334686320586769,0.0250760419527777,-0.744804223761712,-0.000600197353027945,-0.0100711081270791,0.0510778120263273
7.05,3,0.778099917600024,0.0139266131575467,-0.00358083844518367,0.171819208349864,0.000152592547379986,-0.00880967640207119,0.0054017761772515,-0.172419405702892,-0.0101830093284911,0.00618508458713543,0.137424848170415,-0.000620543026011943,0.0340790022481969,-0.74382763145848,-0.00393688772240364,-0.0100711081270791,0.0641600797550381
7.08,3,0.78179265724662,0.00301115960163172,-0.00284839421775974,0.171829381186356,0.000152592547379986,-0.00953194779300312,0.00991851557969909,-0.161392050945565,-0.0163274025696585,-0.00264493748791976,0.103122043519395,0.00802636799218726,0.0428479873043001,-0.738680176193528,-0.00224819686473179,-0.0100711081270791,0.0737632374034852
7.11,3,0.784142582476272,0.000223802402823979,-0.00195318460646382,0.171971800897244,0.000152592547379986,-0.0097659230323191,0.00584938098289946,-0.158136743268125,-0.0140893785414187,-0.0164087852615945,0.0984832300790429,-0.00678528194016338,0.0479649240597756,-0.73594368317718,-0.00167851802117985,-0.0100711081270791,0.0849940488906522
7.14,3,0.786034730063784,0.000152592547379986,-0.00497451704458754,0.171971800897244,0.000152592547379986,-0.0101931821649831,0.00320444349497971,-0.161798964405245,-0.0130720948922188,-0.021434166488642,0.108808659118422,-0.0203456729839981,0.0503860591448714,-0.735414695679596,-0.0160222174748985,-0.0129195023448388,0.103651031016978
7.17,3,0.784976755068616,-0.00926745404421115,-0.0253507085380617,0.171961628060752,0.000152592547379986,-0.0129907122002828,0.00584938098289946,-0.156509089429406,-0.0132755516220588,-0.0154728843043306,0.11378317616301,-0.0244758445997497,0.0537125766777551,-0.731030203151545,-0.0269987080497655,-0.0172022665079704,0.126784061199784
7.2,3,0.784295175023652,-0.00782291126234728,-0.0344045330159408,0.16991688792586,-0.0075991088595233,-0.0165410321359905,0.00361135695465967,-0.161961729789117,-0.00953194779300312,0.00264493748791976,0.135492009236936,-0.0304676452935372,0.0603350932340464,-0.723705760877305,-0.043071789707124,-0.0193995991902422,0.145268105105747
7.23,3,0.779442732016968,-0.0231635486922819,-0.0643635364848781,0.167597481205685,-0.010945972065391,-0.0193385621712902,0.0119530828780989,-0.155654571164078,-0.0125024160486668,0.00775170140690329,0.113559373760186,-0.0246182643106377,0.0658385977762179,-0.713359986164942,-0.065624968209886,-0.02172917874691,0.159672841578417
7.26,3,0.770867030854213,-0.0358694214707887,-0.0780663472396008,0.160201829076001,-0.0296741640471613,-0.0191249326049582,0.00739565212968332,-0.164688049968973,-0.0114851323994669,0.0097964415417951,0.0926338490961435,-0.0260831527654856,0.0718202256335134,-0.698833175654368,-0.0782087669504888,-0.0179143650624104,0.190435499130222
7.29,3,0.765139723909218,-0.0267240414644815,-0.102369253618987,0.150741091138442,-0.0316578671631011,-0.0174158960743024,0.0119123915321309,-0.156712546159246,-0.0151473535365866,0.00021362956633198,0.0927152317880795,-0.0358592486342967,0.0774966683960489,-0.687398907437361,-0.105838190862758,-0.0144861191646067,0.207363099052909
7.32,3,0.751558987192399,-0.0527665028839992,-0.122094383576973,0.142490920743431,-0.0270699179052095,-0.0145776746930347,0.0297758924120813,-0.173314615314188,-0.010345774712363,-0.00175990071311584,0.0588803776156906,-0.0378124332407605,0.0818201239051485,-0.669555752230394,-0.120975371562853,-0.0124718975391909,0.248868271940265
7.35,3,0.740175583157852,-0.0450453199865719,-0.146234524572487,0.137455366679891,-0.010478021586759,-0.0143335266172267,0.0231432030192979,-0.149021881771294,-0.0144149093091627,0.00947091077405113,0.0707113864558855,-0.0157780693990905,0.0858180486465041,-0.654133732108524,-0.151249732963042,-0.0148014770958586,0.277993102816858
7.38,3,0.71894487339905,-0.0790429395428327,-0.173650318918424,0.136031169571011,-0.00729392376476333,-0.0177007354960784,0.0279040904975534,-0.171198665323852,-0.00729392376476333,0.010671305480107,-0.00087486393831192,-0.021342610960214,0.0878119245989359,-0.630888800724306,-0.173507899207536,-0.02188177129429,0.328928495132298
7.41,3,0.69528285571866,-0.086601357056388,-0.19790236111535,0.133966083763136,-0.00745668914863531,-0.0207118950977101,0.0173243405458744,-0.150812300993886,-0.0122175766268909,0.00535091199479151,-0.0441602832117679,-0.00727357809177933,0.086723431094292,-0.608335622221544,-0.204097618538977,-0.0284229051586454,0.381410158594521
7.44,3,0.656076743878496,-0.139357687103895,-0.210648925239825,0.12640766624958,-0.033061718598997,-0.0243639433983378,0.00385550503046765,-0.175878170110172,-0.0124617247026989,0.032085126295765,-0.175389873958556,0.00954212062949512,0.0794295073295287,-0.576413261309651,-0.21612191127252,-0.0306202378409172,0.444797102776167
7.47,3,0.601489303262429,-0.196010213527838,-0.234321115756706,0.108676412244026,-0.0689006215603097,-0.0171717479984944,0.0301421145257932,-0.136651712597023,-0.0199082410148422,0.00150557980081586,-0.365815200252286,0.021668141727958,0.0636514379304381,-0.537603890092675,-0.243313903215634,-0.0271411277606535,0.510116885891293
7.5,3,0.51997436445204,-0.287596260465306,-0.236823633533738,0.0784223965168208,-0.116499323506373,-0.0168970814132104,0.0264392020427056,-0.177505823948892,-0.0246691284930977,-0.0604876857814264,-0.652882473220008,-0.0298369294310333,0.032542903937905,-0.487187312438327,-0.224016032390311,-0.0122582679728589,0.570401114942879
7.53,3,0.442162338124739,-0.274615721101515,-0.213995788445692,0.0340688294117049,-0.15546128727073,-0.0145573290200507,-0.0210882900479141,-0.144138920255135,-0.00940987375509914,-0.102938932462539,-0.706472975859859,-0.255704418062888,-0.00929797255368714,-0.451317890967538,-0.217861466312652,0.0140588600319427,0.60923083183284
7.56,3,0.346059551784824,-0.336161381878109,-0.184718365021719,-0.00832138025045523,-0.144922228665019,-0.00173955504013184,0.0362051250750247,-0.139540798160751,-0.00468967762281157,-0.0115868607643869,-0.897671437726981,0.182449822484003,-0.0569882300281788,-0.402976571957559,-0.176559750155136,0.0372020630512406,0.620654927213355
7.59,3,0.238380077517014,-0.372173223059786,-0.0750144962920011,-0.0497248247728914,-0.137150181585131,0.0371715445417646,-0.00639871415346741,-0.156346324045534,-0.0255643381043936,-0.0148319956053346,-0.941190832239753,-0.249926246935433,-0.113711966307566,-0.352010661132644,-0.0596229946796065,0.0673645232500178,0.624205247149063
7.62,3,0.155532497126174,-0.284178187403994,0.0139164403210547,-0.0686157821385337,-0.033143101290933,0.0685343994465977,-0.0318714967294331,-0.187719351786859,-0.00245165359457177,0.043885616626484,-0.582628864406262,-0.185206661173335,-0.159988199509669,-0.315418968270923,0.0296334727011933,0.076041952777693,0.610970386872972
7.65,3,0.121565396079389,-0.108961251665802,0.0516373180333872,-0.0629800307219662,0.0281482385733614,0.064973906674398,-0.0796838282418287,-0.150364696188238,-0.00643940549943541,0.125461592455824,-0.160863063447981,-0.032329274371573,-0.182744834742271,-0.3042593666392,0.0525935646636352,0.065146844894762,0.589017405723238
7.68,1,0.11296934924365,-0.0118106631672109,0.0341705577766249,-0.0519628488011312,0.043081962543616,0.0566626992604348,-0.101860611794387,-0.114759768466241,-0.0194199448632262,0.0816166671753085,0.274371573025707,0.010630614134139,-0.17576626890876,-0.288694926806441,0.0314951017792291,0.0553809218624429,0.541439049450158
7.71,1,0.10920539974161,0.00606301054923144,0.0187180191452783,-0.0423291726432081,0.0298572751040173,0.0455946531571398,-0.0509150466424553,-0.146539709667247,-0.0252794986826177,0.0289620654927213,0.336344492934965,0.0847804193243202,-0.159693187251401,-0.268807031464583,0.0122887864823349,0.0298471022675253,0.527461572110151
7.74,1,0.104902289905494,0.00116987619657989,0.00877915789259519,-0.043315937782932,-0.0119123915321309,0.0298267565945413,-0.0305693736584572,-0.157119459618926,-0.0338246813358969,-0.064862005472986,0.323353780734682,0.0231737215287739,-0.151107313252154,-0.25591804762922,0.00904365164138717,0.0408134200059002,0.559221167638173
7.77,1,0.101463871171199,0.000152592547379986,0.00826034323150324,-0.0427055675934121,0.011342712688579,0.0394706055889564,-0.0171412294890184,-0.168513036489964,-0.0197861669769382,-0.105980610573646,0.35336364838608,-0.0499181086662394,-0.1313414919482,-0.232703634754479,0.00741599780266732,0.0306507563503932,0.636524552140873
7.8,1,0.0993987853633229,0.000152592547379986,0.00603249203975545,-0.0391145563117364,0.010569577115187,0.0268155969929095,-0.0234076967680898,-0.1736808374279,-0.00607318338572344,-0.112369151890622,0.388042847987304,-0.0476902574744916,-0.109337646616006,-0.208685567796869,0.00428276416313161,0.0245674001281777,0.728883734651733
7.83,1,0.0997955259865108,0.000152592547379986,0.000417086296171962,-0.0280973743909014,0.0467747021902117,0.00796533097323527,0.00800602231920326,-0.163996297087517,-0.000132246874395988,-0.0589719331441186,0.391664377778456,-0.0193995991902422,-0.0832443210140283,-0.182958464308603,3.05185094759972e-05,-0.00420138147119561,0.769951475569933
7.86,1,0.103691722362946,0.0054017761772515,-0.00339772738832769,-0.0126956999420148,0.0467543565172277,-0.0119937742240669,0.00389619637643564,-0.161269976907661,-0.011240984323659,-0.032146163314717,0.220302947070732,0.00910468866033916,-0.0504776146732994,-0.154098127180802,-0.00788394828129927,-0.0239468571021658,0.780032756533504
7.89,1,0.10452589495529,-0.00469985045930357,-0.010762861008535,-0.00601214636677145,0.0162765383871985,-0.00906399731437117,0.000233975239315978,-0.159276100955229,-0.010671305480107,-0.0285246335235654,0.100873846654663,-0.000956246630247912,-0.0394604327524644,-0.143894772179327,-0.0115665150914029,-0.00717184972685934,0.781050040182704
7.92,1,0.0998972543514308,-0.0184230068870103,-0.00769066438795129,0.000223802402823979,0.0225938698487299,-0.00537125766777551,-0.00525935646636352,-0.157607755770541,-0.0122582679728589,-0.0353811253191727,0.0337127801344849,-0.00102745648569191,-0.0356964832504247,-0.135522527746412,-0.00508641824599953,-0.0144657734916227,0.768791772209845
7.95,1,0.0953194779300312,-0.0131127862381868,-0.00685649179560737,0.00138350576291187,-0.00374360382905566,-0.00843328145186722,-0.00774152857041129,-0.159479557685069,-0.0120141198970509,-0.0412711976480402,-0.00662251655629139,0.000264493748791976,-0.0353404339732048,-0.130588702047792,-0.00854518265327921,-0.00100711081270791,0.775780510879849
7.98,1,0.0883409120965199,-0.0134688355154068,-0.0097557501958271,0.00291960407320373,0.00749738049460331,-0.00423189998067161,-0.0239773756116418,-0.159764397106845,-0.0116885891293069,-0.043193863745028,0.0935087130344554,-0.0100914538000631,-0.0337026072979929,-0.121941791029593,-0.010691651153091,-0.00673441775770338,0.77894426302886
8.01,1,0.0754417554246651,-0.032990508743553,0.0010681478316599,0.0054221218502355,0.0125125888851588,-0.00549333170567949,0.000803654082867926,-0.157851903846349,-0.010752688172043,-0.0444044312875759,0.0953296507665232,-0.00151575263730786,-0.0278227078056174,-0.103183080538347,0.00281787570828374,-0.010539058605711,0.776309498377433
8.04,1,0.0689820042522456,-0.0157780693990905,-0.00175990071311584,0.0124617247026989,0.0252693258461257,-0.0144454278186387,-0.0161239458398185,-0.160659606718141,-0.00668355357524339,-0.0403658152002523,0.182561723685415,-0.0121768852809229,-0.0197149571214942,-0.0886155786818038,-0.00445570238349559,-0.0271716462701295,0.784864853867204
8.07,1,0.0660624001790419,-0.00553402305164749,-0.00849431847081922,0.021444339325134,0.0303353984191412,-0.0279956460259814,-0.0192164881333862,-0.161880347097181,-0.00363170262764367,0.00205491297138381,0.270343129774875,-0.021362956633198,-0.011383404034547,-0.0773440758486689,-0.0135705638803268,-0.0381379640085045,0.793471073539435
8.1,1,0.065452029989522,-0.00605283771273944,-0.0140486871954507,0.032817570523189,0.0413932716859442,-0.0480666524246956,0.0130110578732668,-0.158665730765709,-0.00314340647602771,0.0357066560869167,0.315154474522131,-0.0191147597684662,0.00717184972685934,-0.0581275877152827,-0.0163274025696585,-0.0551978108055869,0.793247271136611
8.13,1,0.0686971648304697,-0.000183111056855983,-0.0230211289813939,0.0446078880174159,0.0337534714804529,-0.0629189937030142,0.00230923388368379,-0.163508000935901,-0.00827051606799524,0.043478703166804,0.230628376110111,-0.00373343099256366,0.0314747561062451,-0.0369884334849086,-0.0263883378602456,-0.0632038331247902,0.795505640837835
8.16,1,0.0719219539984334,0.000152592547379986,-0.0307626575518052,0.0554317860449029,0.0382905565558845,-0.0718812626524654,0.00841293577888323,-0.158258817306029,-0.00611387473169144,0.0669474369538458,0.236396374401074,-0.00127160456149988,0.0454725791192358,-0.0262153996398816,-0.0332956938383129,-0.0733563239438053,0.798435417747531
8.19,1,0.0751518295846431,0.000152592547379986,-0.0372885321614226,0.0671559801019318,0.0318765831476791,-0.0800144454278186,0.00560523290709148,-0.161269976907661,-0.00796533097323527,0.0892005167800938,0.227688426363923,-0.0065360474461094,0.0557827489038769,-0.0191351054414502,-0.0391603340759504,-0.0821151361634165,0.798354035055595
8.22,1,0.0777408164718568,0.000152592547379986,-0.043921221554206,0.0777865942360708,0.032553076774397,-0.0893683685822118,0.00890123193049918,-0.162877285073397,-0.00678528194016338,0.122028260139775,0.208171839554023,-0.00202948088015381,0.0677663502914518,-0.0097710094505651,-0.0452742088076418,-0.0916623432111576,0.791990925829849
8.25,1,0.0774254585406049,-0.00738039287494532,-0.043895789462976,0.0841853083895383,0.0157882422355825,-0.0855382956429741,0.0163070568966745,-0.163162124495173,-0.0138452304656107,0.1262550737022,0.144347463403221,0.000737530645669932,0.0748924222540971,-0.00230923388368379,-0.043285419273456,-0.0852432833847062,0.778695028534806
8.28,1,0.0742617063915932,-0.0161697236040325,-0.0413780124312062,0.087445702485224,0.00947599719229713,-0.0821761731823684,0.0245470544551937,-0.164504938912117,-0.0178126366974904,0.122206284778385,0.0552334157333089,0.00368765322834966,0.0842717774997202,0.0101016266365551,-0.0387585070345164,-0.0843531601916562,0.759509058910896
8.31,1,0.0620492161829483,-0.0426292713197221,-0.0252082888271737,0.08689128289641,-0.00634276355276142,-0.0745719779045991,0.0274157943459375,-0.170873134556108,-0.0279854731894894,0.103452660705384,-0.0601774142684205,0.0299386577959532,0.0837682220933663,0.021785129347616,-0.0181229082104963,-0.0732902005066073,0.69332458469395
8.34,1,0.0471205786309397,-0.0503199357076734,-0.00772118289742729,0.0820947904904325,-0.02175461083814,-0.0608335622221544,0.0170395011240984,-0.193843399355042,-0.0424715923540961,0.133472701193274,-0.0409202347890662,0.116901150547807,0.0798364207892086,0.032797224850205,-0.00355031993570767,-0.0605131178726564,0.449451175471257
8.37,3,0.0401877905616423,-0.02218695638905,-0.00355031993570767,0.0704418062888475,-0.043860184535254,-0.0427818638671021,0.0512202317372153,-0.294554480625833,-0.0580360321868547,0.229026154362621,0.247332173629973,0.5256202887051,0.0855993326619261,0.0455030976287118,-0.00946073793755913,-0.0342366812138228,0.146478672648295
8.4,3,0.0448622089297159,0.0125125888851588,-0.0225531785027619,0.0493331705679495,-0.0786207668284148,-0.021764783674632,-0.0766523229672129,-0.258542639444156,-0.00991851557969909,0.0262764366588336,0.178223008921578,0.857620980457981,0.101341797133295,0.0565864029867448,-0.032380138554033,0.00832138025045523,0.0316070029806411
8.43,3,0.0465763318786177,0.00245165359457177,-0.0313069043041271,0.0247199926755577,-0.0817133091219825,0.00317392498550371,0.0065411338643554,-0.223731192968535,-0.00723288674581133,-0.0139622180852687,0.0719422996714174,0.480778425448368,0.10689107943968,0.0603605253252764,-0.0295622628457493,0.0360016683451847,0.00778221991637928
8.46,3,0.0505284788557594,0.00949125644703513,-0.0308898180079552,0.0076296273689993,-0.0467645293537197,0.0261899675486516,0.0645059561957661,-0.210445468509985,-0.0137028107547227,-0.00794498530025127,0.153091016368094,-0.0451928261157058,0.11396120080162,0.0635242774742882,-0.0333058666748049,0.0298979664499853,0.00289417198197373
8.49,3,0.0578681803847367,0.0192368338063702,-0.0387279885250404,0.00351980142623168,-0.00744142989389732,0.010747601753797,0.00259407330545976,-0.182531205175939,0.00043743196915596,0.0399436424858343,0.130715862503942,-0.123325296792505,0.122801395713167,0.065014598020366,-0.00163782667521185,0.0412915433210242,0.00189723400575783
8.52,3,0.106733400474054,0.166956592506689,0.0990986866868089,0.0195064139734082,0.101753797011221,0.111229794203518,0.169042023987548,-0.321125929542934,-0.00945056510106713,0.0732545955788853,0.817219560330007,0.123167617826879,0.144871364482559,0.0382346059551785,0.107811721142206,0.133035269224118,0.00167851802117985
8.55,3,0.247774692017375,0.475310525833918,0.0147963906776126,0.0947803175959553,0.292428357799005,0.0398826054668823,-0.0235297708059938,-0.345316934720908,-0.00267545599739575,-0.0231788079470199,1.6052786848557,0.204977568895535,0.225684377574999,-0.021876684876044,0.00583920814640746,0.0199285866878262,0.00167851802117985
8.58,3,0.390758995330668,0.492924792219815,-0.0164850815352845,0.186941129795221,0.316217535935545,0.0148676005330566,-0.12533951841792,-0.199702953174434,0.021942808313242,0.0996327606026388,1.34828231655833,-0.0165969827366965,0.317763807082329,-0.0727866451002533,-0.0169835505233924,-0.0447604805647959,0.00167851802117985
8.61,3,0.514526810510575,0.429263181452885,-0.0102949105299031,0.262113305052848,0.236788028606016,-0.0196742657755262,-0.107964313689586,-0.176976836451308,0.0043844925280516,-0.0820744448174485,0.969913836074913,-0.278166041037222,0.385291095716219,-0.12897630746381,-0.00969979959512111,-0.0629240801212602,0.00167851802117985
8.64,3,0.621199173965677,0.37267677846614,-0.00065106153548794,0.292896308277637,0.0621865494755903,-0.0300505589973652,-0.0848719748527482,-0.108879868973866,-0.0159611804559465,-0.15576647236549,0.614190089622689,-0.309661142816452,0.431801304157638,-0.189148635313985,-0.000167851802117985,-0.0238196966460158,0.00167851802117985
8.67,3,0.718710898159734,0.338938566240425,-0.000930814539017914,0.291563666697185,-0.00596128218431145,0.00451165298420159,-0.0416577654347362,-0.104057944476658,-0.0183416241950743,-0.11177404095584,0.314991709138259,-0.197358114363028,0.458993296100752,-0.259468367564928,-0.00054424675232195,0.00970488601336711,0.00167851802117985
8.7,3,0.801273639128798,0.291797641936501,0.0010884935046439,0.291375469222083,0.000152592547379986,0.00681580044963937,-0.032420829900001,-0.111687571845658,-0.0179754020813623,-0.144347463403221,0.0277260658589434,-0.138523514511551,0.468825342570269,-0.332199062064475,0.00236518448438978,0.00747703482161931,0.00167851802117985
8.73,3,0.869487594225898,0.244905952126631,0.0042980234178696,0.291299172948393,0.000152592547379986,0.00717184972685934,-0.0268054241564175,-0.0964893541266111,-0.021963153986226,-0.152780744855088,-0.272718487095757,-0.210455641346477,0.4607125054679,-0.408541113518682,0.00692770165105136,0.00747703482161931,0.00167851802117985
8.76,3,0.923322244941557,0.199901323486028,0.00830103457747124,0.291172012492243,0.000152592547379986,0.00734987436546932,0.0292469049144973,-0.131219417910296,-0.0173446862188584,-0.187159845779799,-0.464105146437981,-0.250338246813359,0.43699962360505,-0.486078473260699,0.00998463901689708,0.00747703482161931,0.00167851802117985
8.79,3,0.9566433708711,0.131768751080864,0.0166834518468785,0.291146580401013,0.000152592547379986,0.00722271390931934,0.0428581601407921,-0.118055767489649,-0.0241604866684978,-0.184565772474339,-0.56762901699881,-0.246523433128859,0.406598101748711,-0.549816380301319,0.0224311044648579,0.00747703482161931,0.00167851802117985
8.82,3,0.980244351532538,0.0953093050935392,0.0285348063600574,0.291146580401013,0.000152592547379986,0.00734478794722332,0.0776492609434289,-0.133498133284504,-0.0273547573269855,-0.149530523595894,-0.677337972146774,-0.107638782921842,0.36797184158859,-0.612038534704632,0.0292672505874813,0.00747703482161931,0.00167851802117985
8.85,3,0.996536149174474,0.0676849675995158,0.0202592038738161,0.290927864416435,-0.000162765383871985,0.0011342712688579,0.0881679738761559,-0.120598976612649,-0.0317494226915291,-0.0481734672078616,-0.670791751864172,0.0211951048310801,0.327600939970092,-0.668726666056296,-0.00250760419527777,-0.0336771752067629,0.00167851802117985
8.88,3,0.990941089103875,-0.010625527715893,-0.0256914985605436,0.282626829838964,-0.043519394512772,-0.0423749504074221,-0.00190232042400382,-0.0465203812779117,-0.0272733746350495,0.0310271513005971,-0.85361796929838,0.137994527013967,0.283074434644612,-0.707637765638193,-0.0239824620298878,-0.0595670440789005,0.00167851802117985
8.91,3,0.963194677571947,-0.0887376527197078,-0.011368144779809,0.249168370616779,-0.134484898424228,-0.032914212469863,-0.00456760358490758,-0.0631021047598702,-0.0235908078249458,0.120888902452671,-1.10838139998576,0.221477909685558,0.223008921577603,-0.739941607918536,-0.00360118411816767,-0.00960315764844712,0.00167851802117985
8.94,3,0.926389355143895,-0.119083223975341,0.0043132826726076,0.206315296894233,-0.144469537441125,-0.010717083244321,0.0806400748720766,-0.151605782240262,-0.0117699718212429,0.189408042644531,-1.09052298552405,0.303257342244738,0.1551815342672,-0.770984018473871,0.00625629444257942,0.0210679443749301,0.00167851802117985
8.97,3,0.887188329721976,-0.126733197017324,0.010432243822545,0.17685984883165,-0.0832392345957823,0.0102694784386731,0.0836715801466923,-0.156203904334646,-0.00147506129133986,0.156178472243416,-0.952737001658172,0.311807611316263,0.0943683177180293,-0.792601296019369,0.0125939715770948,0.0199641916155482,0.00167851802117985
9,3,0.850561031932534,-0.118294829147211,0.0139520452487767,0.16938281401003,-0.0128788109988708,0.00291451765495773,0.0786868902656128,-0.158645385092725,0.00717184972685934,0.0929848119551175,-0.780373546555986,0.246131778923917,0.0427513453576261,-0.807575711335592,0.0150914029358806,-0.00231940672017579,0.00167851802117985
9.03,3,0.823308002970468,-0.0888393810846278,0.0136875514999847,0.169693085523036,0.000132246874395988,-0.00411491236101362,0.0747194840337331,-0.158747113457645,0.00839259010589923,-0.0139622180852687,-0.620863470361441,0.115873694062115,0.000727357809177933,-0.822392447686188,0.0127007863602608,-0.0086825159459212,0.00167851802117985
9.06,3,0.806655069633066,-0.0535396384573911,0.00950651570177313,0.169998270617796,0.000152592547379986,-0.00659199804681539,0.0741091138442132,-0.147333190913622,0.00664286222927539,-0.109581794691814,-0.438291573839534,-0.00583920814640746,-0.0302743614001892,-0.836873480432549,0.00690735597806736,-0.00900296029541917,0.00167851802117985
9.09,3,0.793913591926837,-0.0416221605070142,0.00595619576606545,0.170038961963764,-0.000162765383871985,-0.00795007171849727,0.0574866990162867,-0.115370138655761,-0.0021464684998118,-0.176051108330536,-0.363221126946827,-0.0854772586240221,-0.053926206244087,-0.847773674733726,0.00517288735618152,-0.00900296029541917,0.00167851802117985
9.12,3,0.782245348470514,-0.0370494705038606,0.00514236884670553,0.167699209570605,-0.00736004720196132,-0.00423698639891761,0.0774458042135889,-0.0950041199987793,-0.0132552059490748,-0.195898312326426,-0.225933612069053,-0.103717154454176,-0.0712810652994374,-0.853424685405031,0.0054068625954975,-0.00497960346283354,0.00167851802117985
9.15,3,0.769341105380413,-0.0414492222866502,0.00611896114993744,0.167699209570605,0.000147506129133986,-0.00466933194982757,0.0869675791701,-0.0719931638538774,-0.0179957477543463,-0.187617623421939,-0.155059460229296,-0.118961149937437,-0.0827712841171504,-0.85201574755089,0.00715150405387534,-0.0076296273689993,0.00167851802117985
9.18,3,0.749529506312245,-0.064638203070162,0.0102033550014751,0.167699209570605,0.000152592547379986,-0.00617999816888943,0.0989511805576749,-0.0886155786818038,-0.0459100110883918,-0.129937640512304,-0.065355388042848,-0.104159672841578,-0.0891496525976338,-0.838597776217943,0.0133874528234708,-0.0076296273689993,0.00167851802117985
9.21,3,0.729397462894579,-0.06551815342672,0.0160171310566525,0.162729778944263,-0.0277871028778954,-0.0021820734275338,-0.0681071403139337,-0.447716706849371,-0.0988087608467869,0.000773135573391929,0.152144942574338,0.346578366445916,-0.0877508875799839,-0.817041535691397,0.0173446862188584,0.000859604683573921,0.0711182999155655
9.24,3,0.731925412762841,0.00021871598457798,0.00969471317687511,0.144988352102217,-0.0593585009308145,0.0125329345581428,0.00076296273689993,-0.113233842992442,-0.0151676992095706,0.107989745780816,0.276807967365541,-0.0659555853958759,-0.0717032380138554,-0.803557440921252,0.00505081331827753,0.0257271034882656,0.097359131646677
9.27,3,0.744443088066246,0.0266986093732515,-0.00274666585283975,0.139586575924965,-0.00725831883704133,0.0166529333374025,-0.00043743196915596,-0.129774875128432,-0.0394604327524644,-0.0309457686086612,0.205801568651387,0.102130191961425,-0.0583920814640746,-0.802728354747154,-0.00829594815922524,0.0125583666493728,0.0374970753095085
9.3,3,0.746777754041159,-0.00250760419527777,-0.0153965880306406,0.139469588305307,0.000152592547379986,0.0125125888851588,-0.00365204830062766,-0.179845576342051,-0.00316375214901171,-0.00309762871181372,0.229834894863735,-0.086672566911832,-0.0468255663726717,-0.793547369813125,-0.0179296243171484,0.010376293221839,0.0740836817529832
9.33,3,0.753196813867611,0.00630207220679342,-0.022100487278868,0.139306822921435,0.000152592547379986,0.011195206559445,-0.0021261228268278,-0.180639057588427,-0.00131229590746788,-0.010386466058331,0.175323750521358,-0.043397320474868,-0.0377107048758405,-0.790790531123793,-0.0256660664693136,0.010818811609241,0.0937325154372794
9.36,3,0.757576219977416,0.00188706116926583,-0.0306711020233772,0.137770724611143,-0.00716676330861334,0.011276589251381,0.00371308531957966,-0.159520249031037,-0.00641905982645141,0.0097557501958271,0.136214280627867,0.0377005320393485,-0.0269173253578295,-0.784366384879096,-0.0314289783420311,0.0123193049918109,0.0998362173324788
9.39,3,0.760770490635904,0.000178024638609984,-0.0347860143843908,0.136870428581601,-0.000361135695465967,0.0122786136458429,0.00206508580787581,-0.159662668741925,-0.0136824650817387,0.00580360321868547,0.11251157160151,0.0615405743583483,-0.0153304645934426,-0.776014486119165,-0.0366781619719026,0.0126956999420148,0.102323475854773
9.42,3,0.76100446587522,-0.0076143681142613,-0.0394146549882504,0.136875514999847,0.000152592547379986,0.0121717988626769,-0.00157678965625985,-0.162612791324605,-0.0176702169866024,-0.0178584144617044,0.0969573046052431,0.0189367351298563,-0.00826034323150324,-0.769178339996541,-0.0403302102725303,0.0120548112430189,0.113523768832464
9.45,3,0.762891527044486,-0.00273140659810175,-0.0503097628711814,0.136875514999847,0.000152592547379986,0.0119276507868689,-0.00363170262764367,-0.157119459618926,-0.0182195501571703,-0.0473291217790256,0.0851415550197862,-0.0472579119235816,-0.00446078880174159,-0.767255673899553,-0.0526749473555711,0.010528885769219,0.131127862381868
9.48,3,0.760399182103946,-0.0150354523351746,-0.0634835861283202,0.136234626300851,-0.00393180130415764,0.010798465936257,-0.0032654805139317,-0.164362519201229,-0.010345774712363,-0.0608895128228604,0.06493321532843,-0.0845871354309722,-0.000712098554439934,-0.760968860947498,-0.065116326385286,0.00840276294239123,0.153584398937956
9.51,3,0.755653553880428,-0.0234076967680898,-0.0881527146214179,0.131941689301228,-0.0167851802117985,0.00968962675862911,-0.00658182521032339,-0.151666819259214,-0.00625629444257942,-0.0600451673940245,0.0375631987467065,-0.0823592842392244,0.00242113508509578,-0.752998443556017,-0.0899583930987477,0.00832138025045523,0.172780541398358
9.54,3,0.744493952248706,-0.0447452213100579,-0.102816858424635,0.121127964110233,-0.0442009745577359,0.010544145023957,-0.00283822138126774,-0.163487655262917,-0.00385550503046765,-0.0389975686920784,-0.0142928352712587,-0.065121412803532,0.00286873989074374,-0.741350545772678,-0.102806685588143,0.0139164403210547,0.207688629820653
9.57,3,0.731671091850541,-0.0497197383546454,-0.120441297647023,0.103208512629577,-0.0628783023570462,0.0167648345388145,-0.0022278511917478,-0.151829584643086,-0.00629698578854742,-0.0310525833918271,-0.0387534206162704,-0.0477156895657216,0.00115970336008789,-0.730287586087629,-0.124057741019929,0.0246080914741457,0.23675751009654
9.6,3,0.712098554439935,-0.0727459537542853,-0.142653686127303,0.0854874314605141,-0.0576342051454207,0.0251675974812057,0.0175481429486984,-0.177261675873084,-0.0033061718598997,-0.0247962889492477,-0.0596229946796065,-0.0561947487818028,-0.00162765383871985,-0.713619393495488,-0.142267118340607,0.032461521245969,0.274341054516231
9.63,3,0.690674560787784,-0.0797143467513047,-0.158467360454115,0.0746991383607491,-0.0266273995178075,0.0304320403658152,0.0114444410534989,-0.165562913907285,-0.00595110934781945,-0.0315103610339671,-0.0530869472334971,-0.0295470035910113,-0.00522375153864152,-0.695837275307474,-0.160466322824793,0.033071891435489,0.309045686208686
9.66,3,0.667221086255481,-0.087130344553972,-0.178924934639526,0.0733308918525753,-0.000473036896877956,0.0287179174169134,0.00147506129133986,-0.162816248054445,-0.00849431847081922,-0.0402081362346263,-0.0816777041942605,-0.0466984059165217,-0.00907925656910916,-0.676218960132654,-0.181071403139337,0.0244300668355358,0.339086072369559
9.69,3,0.638197983743807,-0.105344808292896,-0.189118116804509,0.0699229916277556,-0.0163579210791345,0.0249183629871517,-0.00411999877925962,-0.152928250984222,-0.00674459059419538,-0.0552181564785709,-0.144505142368847,-0.0771101006093529,-0.0158085879085665,-0.653925188960438,-0.189316487116103,0.021286660359508,0.366155990274768
9.72,3,0.606677449873348,-0.114678385774305,-0.188268684957427,0.0586006246121606,-0.0447757398195339,0.0245674001281777,-0.00635802280749942,-0.148574276965646,-0.00348928291675568,-0.0462558875291198,-0.201910458693197,-0.097262489700003,-0.0266019674265776,-0.633182775353252,-0.188482314523759,0.0260017700735496,0.379807936847031
9.75,3,0.574968718527787,-0.115029348633279,-0.17881811985636,0.0410067038992482,-0.0624663024791203,0.0304015218563392,-0.00859604683573921,-0.166091901404869,0.00367239397361166,-0.0114546138899909,-0.226961068554745,-0.0813063956623025,-0.0397808771019623,-0.61467329935606,-0.177226070945362,0.0376344086021505,0.404070151880449
9.78,3,0.541917172765282,-0.117974384797713,-0.162760297453739,0.0249031037324137,-0.0483820103559476,0.0404828028199103,0.00468967762281157,-0.147719758700318,-0.0032451348409477,0.043702505569628,-0.198878953418582,0.0155135756502986,-0.0525528733176672,-0.594403922645751,-0.162622964161097,0.0468916898098697,0.43158258817306
9.81,3,0.504893134352651,-0.128691468042034,-0.150471510971404,0.0173090812911364,-0.0196284880113122,0.0452742088076418,-0.0166732790103865,-0.167271950437941,-0.00448622089297159,0.0705994852544735,-0.163808099612415,0.0468866033916237,-0.0633869441816462,-0.568203782260608,-0.15068005411949,0.0454573198644978,0.484542374950407
9.84,3,0.469634083071383,-0.124098432365897,-0.149164301482182,0.0138757489750867,-0.011103651031017,0.043239641509242,-0.0210475987019461,-0.171483504745628,-0.00914538000630716,0.0177668589332764,-0.150466424553158,-0.010406811731315,-0.0726594846441033,-0.542207098605304,-0.153131707714062,0.0407879879146702,0.519175796787418
9.87,3,0.424751528468683,-0.157022817672252,-0.169021678314564,0.00767540513321329,-0.0259661651458276,0.0390840378022604,-0.00804671366517126,-0.145237586596271,-0.0145776746930347,-0.0143843907996867,-0.270271919919431,0.0291553493860693,-0.0847956785790582,-0.509440392264575,-0.168273974832403,0.0355184586118147,0.532263150934375
9.9,3,0.371949420656962,-0.182521032339447,-0.134301787367372,-0.00971505884985911,-0.0681223995686717,0.043397320474868,-0.0191757967874182,-0.160639261045157,-0.00332651753288369,0.0465712454603717,-0.342661824396496,-0.000366222113711966,-0.103798537146112,-0.475636056601662,-0.131204158655558,0.0471968749046297,0.557990254422641
9.93,3,0.319091362244535,-0.182566810103661,-0.0925473799859615,-0.0300607318338572,-0.0626951913001902,0.0554266996266569,0.000783308409883928,-0.163813186030661,-0.00234992522965178,0.00194301176997182,-0.313928647724845,-0.0584378592282886,-0.124083173111159,-0.443082979827265,-0.0891242205064038,0.0609251177505824,0.566565955585396
9.96,3,0.273679820144251,-0.156743064668722,-0.0561235389263588,-0.0380362356435845,-0.0156153040152186,0.0590431429995626,-0.0190944140954822,-0.17561367636138,0.0010884935046439,0.00922167627999715,-0.209728283537299,-0.0440382091738639,-0.140110477004303,-0.413698741620126,-0.0473952452162236,0.0622781050040183,0.567318745485804
9.99,3,0.247413556321909,-0.0904466892503637,-0.0280922879726554,-0.0370545569221066,0.00497451704458754,0.0587837356690166,-0.0513016144291513,-0.146844894762006,-0.00855535548977121,0.0426903083386741,-0.0399894202500483,-0.0603350932340464,-0.146997487309386,-0.394294056011638,-0.0254015727205217,0.0578274890387687,0.559078747927285
10.02,3,0.231528672139653,-0.0514084292123173,-0.0349640390230008,-0.0370647297585986,0.000152592547379986,0.0576087730541907,-0.0429598885057121,-0.145034129866431,-0.00318409782199571,0.0482599363180436,0.0703960285246335,-0.04307687612537,-0.145547858109277,-0.376979888302255,-0.0383159886471145,0.0576799829096347,0.550721762749107
10.05,3,0.211528875596383,-0.0626443271177302,-0.0333058666748049,-0.0369273964659566,0.000152592547379986,0.0576545508184047,-0.0271513005971455,-0.155532497126174,-0.00778221991637928,0.0382447787916705,0.108961251665802,0.0462202826013977,-0.139912106692709,-0.351318908251188,-0.0287636951811274,0.0576799829096347,0.552486749880469
10.08,1,0.199850459303568,-0.0377819147312845,-0.0287891272723573,-0.0367798903368226,0.000152592547379986,0.0573239336324147,-0.0389314452548804,-0.160720643737093,-0.0159815261289305,0.00956246630247912,0.17579170099999,0.00488804793440555,-0.131565294351024,-0.331339457380902,-0.0292977690969573,0.0572679830317087,0.567150893683686
10.11,1,0.195654164250618,-0.0135705638803268,-0.0355235450300607,-0.0350555945514288,0.00779239275287128,0.0521968240404472,-0.02198349965921,-0.161208939888709,-0.00635802280749942,-0.00897244178594317,0.223359884436577,-0.021561326944792,-0.118650878424431,-0.314238919237851,-0.0312967314676351,0.043020925524664,0.574597409995829
10.14,1,0.194703004038616,-0.00119530828780989,-0.0160018718019145,-0.0344248786889248,0.000345876440727968,0.0307880896430352,-0.02157658619953,-0.163650420646789,-0.00881984923856319,-0.00922676269824315,0.213405763929156,0.00608335622221544,-0.106006042664876,-0.300642923266294,-0.0198217719046602,0.0278481398968474,0.594571774447869
10.17,1,0.193548387096774,-0.00251777703176977,-0.0274107079276915,-0.0333516444390189,0.00615965249590543,0.0278277942238634,-0.00517797377442752,-0.161229285561693,-0.00625629444257942,-0.0115919471826329,0.19172236294646,-0.0200150557980082,-0.0916369111199276,-0.285078483433536,-0.0274056215094455,0.0246894741660817,0.606021301919614
10.2,1,0.188370413322347,-0.0140893785414187,-0.0238146102277698,-0.0283974730674154,0.0168513036489964,0.0178533280434584,-0.0100405896176031,-0.161046174504837,-0.00743634347565132,-0.010762861008535,0.141331217383343,-0.0065157017731254,-0.0792311370179347,-0.267525254066591,-0.0238553015737378,0.011368144779809,0.619663075655385
10.23,1,0.179748934395377,-0.0262052268033896,-0.021632536800236,-0.0242215236874498,0.00891649118523718,0.00658182521032339,-0.00839259010589923,-0.159967853836685,-0.00625629444257942,-0.00688701030508337,0.0723746452223273,-0.00682597328613137,-0.0728019043549913,-0.252449110385449,-0.0196640929390342,0.0132348602760908,0.615451521347697
10.26,1,0.166722617267373,-0.0400148523412783,-0.0148370820235806,-0.0234127831863358,0.00291451765495773,0.0118767866044089,-0.00116987619657989,-0.158340199997965,-0.00788394828129927,-0.00265002390616576,0.000778221991637928,-0.00749229407635731,-0.0709199296039715,-0.237576423434146,-0.011149428795231,0.0196030559200822,0.611504460788802
10.29,1,0.149398276721498,-0.0528631448306731,-0.00119530828780989,-0.021362956633198,0.00523901079337952,0.0128076011434268,-0.00900296029541917,-0.159764397106845,-0.00483209733369956,0.00665303506576739,-0.06503494369335,-0.00359101128167567,-0.0728476821192053,-0.22214931689403,0.00127160456149988,0.0124057741019929,0.606972462131616
10.32,1,0.137587613554287,-0.0284737693411054,-0.00273140659810175,-0.021362956633198,0.000152592547379986,0.0155034028138066,-0.0283313496302174,-0.161758273059277,-0.00645975117241941,0.0135603910438348,-0.0508031454410433,-0.00225328328297779,-0.0774966683960489,-0.214997812840154,-0.0076398002054913,0.0181432538834803,0.603518784142583
10.35,1,0.117074088768171,-0.0532242805261391,0.000361135695465967,-0.021479944252856,0.000152592547379986,0.0174616738385164,-0.00725323241879533,-0.15713980529191,-0.00116987619657989,0.0251421653899757,-0.00202439446190781,-0.00823491114027324,-0.0777408164718568,-0.194728436129846,0.00559506007059949,0.0181585131382183,0.602710043641469
10.38,1,0.0946582435580513,-0.0611336608986684,0.0180059205908383,-0.021515549180578,0.000152592547379986,0.0179448835718863,-0.0283110039572334,-0.159906816817733,-0.010773033845027,0.0269325846125675,0.0147302672404146,0.000361135695465967,-0.0781935076957508,-0.172800887071342,0.0206915494247261,0.0183874019592883,0.603452660705385
10.41,1,0.0770643228451389,-0.0481734672078616,0.0208492283903521,-0.021515549180578,0.000152592547379986,0.0181330810469883,-0.0192571794793542,-0.159459212012085,-0.00613422040467544,0.0353455203914508,0.0797346924242887,-0.00183619698680583,-0.0750246691284931,-0.152017782118188,0.0205847346415601,0.0186162907803583,0.603457747123631
10.44,1,0.0601214636677145,-0.0479089734590696,0.02122053692231,-0.0198522904141362,0.00766523229672129,0.0135959959715567,-0.0126448357595548,-0.159947508163701,-0.00660217088330739,0.0395977660451064,0.0887986897386598,0.00395723339538764,-0.0696839299701936,-0.12968840601825,0.0225836970122379,0.0123498235012869,0.608020264290292
10.47,1,0.0412203334655802,-0.0561031932533748,0.0298928800317393,-0.0181025625375123,0.00565101067130548,0.00740073854792932,-0.0116682434563229,-0.161208939888709,-0.00910468866033916,0.0469934181747897,0.0914792321543016,0.00365204830062766,-0.0644245735038301,-0.105563524277474,0.032339447208065,0.0134434034241768,0.614520706808679
10.5,1,0.0236060670796838,-0.0529445275226091,0.0365408286792606,-0.0142979216895047,0.0144606870733767,0.00381990010274565,-0.0144759463281147,-0.161778618732261,-0.00863673818170721,0.0555436872463149,0.134729046500036,0.00771609647918129,-0.0579699087496567,-0.0814895067191585,0.0373495691803746,0.00342824589780368,0.621687470117293
10.53,1,0.0115359965819269,-0.0349030020040488,0.032507299010183,-0.00708538061667735,0.0259763379823196,-0.00260933256019776,-0.0158391064180425,-0.159052298552405,-0.00662251655629139,0.0683258562985117,0.212047690257474,0.000803654082867926,-0.0471154922126937,-0.0585955381939146,0.0298318430127873,-0.00989308348846909,0.631066825362916
10.56,1,0.000152592547379986,-0.0342671997232988,0.0272225104525895,0.00248725852229377,0.032741274249499,-0.011378317616301,-0.00422172714417961,-0.158889533168533,-0.00912503433332316,0.0772220018107649,0.206406852422661,0.00585955381939146,-0.0341756441948709,-0.0341705577766249,0.0283262632119714,-0.0246894741660817,0.635339416689556
10.59,1,-0.0147404400769066,-0.0459710481073438,0.0355235450300607,0.0097455773593351,0.0208390555538601,-0.021210364085818,-0.00955229346598712,-0.161534470656453,-0.00938952808211514,0.0937426882737714,0.186300241096225,0.0054475539414655,-0.0226294747764519,-0.0076499730419833,0.0379141616056805,-0.0230160425631479,0.645023957029939
10.62,1,-0.0288043865270953,-0.0440076906643879,0.0412711976480402,0.0172327850174464,0.0280922879726554,-0.0245724865464237,-0.00198370311593982,-0.159866125471765,-0.00963367615792311,0.11083305358033,0.21736808374279,0.00140385143589587,-0.010589922788171,0.0182856735943683,0.0419934690389721,-0.032329274371573,0.65668202764977
