time,Mode,Knee_Angle,Knee_Velocity,Knee_Current,Ankle_Angle,Ankle_Velocity,Ankle_Current,Acc_X,Acc_Y,Acc_Z,Gyro_X,Gyro_Z,Gyro_Y,Shank_Angle,Thigh_Angle,Knee_Ref_Torque,Ankle_Ref_Torque,Filtered_Vertical_Load
0,1,0.00182602415031383,0.000152592547379986,0.000152592547379986,-0.00320444349497971,0.000152592547379986,0.00126143172500788,-0.0160222174748985,-0.145908993804743,-0.0302641885636972,-0.0968047120578631,-0.265083773308512,0.0601011179947305,-0.161926124861395,-0.163655507065035,-0.000625629444257942,0.00305185094759972,0.00167851802117985
0.03,1,0.00177515996785384,0.000152592547379986,0.000152592547379986,-0.00310780154830571,0.000152592547379986,0.00319935707673371,-0.0148421684418266,-0.142714723146255,-0.0337229529709769,-0.0779747917111728,-0.331802321441287,0.109754732912178,-0.16948454237495,-0.17116306039613,-0.000686666463209937,0.00300607318338572,0.00167851802117985
0.06,1,-6.10370189519944e-05,0.000152592547379986,0.000152592547379986,-0.00419120863470361,-0.00687683746859137,0.0032298755862097,0.0880458998382519,-0.181127353740043,-0.0563066499832148,-0.0575833409629607,-0.221625415814692,0.198075299335714,-0.176717429120762,-0.176493626717938,9.15555284279916e-05,0.00784325693533128,0.00167851802117985
0.09,1,-0.00269071525213375,0.000152592547379986,0.000152592547379986,-0.00503555406353954,-0.000640888698995941,0.0075533310953093,0.0570187485376548,-0.192114017151402,-0.0619017100538143,-0.0361288288013347,0.137404502497431,0.236945707571642,-0.175954466383862,-0.173014516637674,0.00146488845484787,0.00592567725658945,0.00454725791192358
0.12,1,-0.00314849289427371,0.000152592547379986,0.000152592547379986,-0.00488296151615955,0.000152592547379986,0.00589515874711346,-0.0202948088015381,-0.172582171086764,-0.0126651814325388,0.0147302672404146,0.098081403037609,-0.134683268735822,-0.168716493219804,-0.165364543595691,0.00196844386120182,0.00442518387401959,0.0295571764275033
0.15,1,-0.00197861669769382,0.000152592547379986,0.000152592547379986,-0.00493891211686555,-0.000162765383871985,0.00513219601021353,-0.0143945636361787,-0.156610817794326,-0.00615456607765943,-0.00565609708955148,0.0461490727459537,-0.0244351532537818,-0.156615904212572,-0.154403312275562,0.00128177739799188,0.00442518387401959,0.0509964293343913
0.18,1,-0.000396740623187963,0.000152592547379986,0.000152592547379986,-0.00706503494369335,-0.00736004720196132,0.00699891150649536,-0.0189113030386263,-0.162307606229845,-0.0143131809442427,-0.0100965402183091,-0.000630715862503942,0.00804162724692526,-0.145817438276315,-0.145201981668549,0.000381481368449965,0.0118259224219489,0.0936613055818354
0.21,1,0.000615456607765943,0.000152592547379986,0.000152592547379986,-0.00900296029541917,-0.00793989888200527,0.0103152562028871,-0.0238349559007538,-0.161208939888709,-0.0163680939156265,-0.0232347585477259,-0.0149947609892066,-0.0303913490198472,-0.142979216895047,-0.143508204392631,0.000137333292641987,0.0132908108767968,0.149505091504664
0.24,1,0.00115970336008789,0.000152592547379986,0.000152592547379986,-0.0115970336008789,-0.00741091138442132,0.0140232551042207,-0.021210364085818,-0.159418520666117,-0.0183619698680583,-0.0471561835586617,-0.0300149540696432,-0.0554572181361329,-0.141346476638081,-0.142434970142725,-0.000305185094759972,0.0159815261289305,0.183894365265867
0.27,1,0.00115970336008789,0.000152592547379986,0.000152592547379986,-0.0134688355154068,-0.0075736767682933,0.0142368846705527,-0.021820734275338,-0.157567064424573,-0.0122989593188269,-0.0618101545253863,-0.0484888251391135,-0.054073712373221,-0.140186773277993,-0.141249834691407,-0.000305185094759972,0.0172734763634144,0.21309549241615
0.3,1,0.000503555406353954,0.000152592547379986,0.000152592547379986,-0.0157475508896146,-0.0076092816960153,0.0168716493219804,-0.0242011780144658,-0.158116397595141,-0.00936918240913114,-0.0596687724438205,-0.0593381552578305,-0.0472477390870897,-0.141168451999471,-0.141575365459151,7.6296273689993e-05,0.0193385621712902,0.255684072389904
0.33,1,-0.000610370189519944,0.000152592547379986,0.000152592547379986,-0.0178635008799504,-0.00736004720196132,0.0192520930611082,-0.0305693736584572,-0.160171310566525,-0.00863673818170721,-0.0572222052674947,-0.043951740063682,-0.0409558397167882,-0.145446129744357,-0.144627216406751,0.000320444349497971,0.0208695740633361,0.308720155440942
0.36,1,-0.0022125919370098,0.000152592547379986,0.000152592547379986,-0.0210475987019461,-0.00848923205257322,0.0234789066235338,-0.0312814722128971,-0.159337137974181,-0.0101219723095391,-0.0579800815861487,-0.0175583157851904,-0.0345571255633208,-0.150664794864752,-0.148228400524918,0.00119022186956389,0.0249234494053977,0.350805180008342
0.39,1,-0.00361644337290567,0.000152592547379986,0.000152592547379986,-0.0238044373912778,-0.00746177556688131,0.0265612760806096,-0.0286772260709454,-0.158950570187485,-0.00890123193049918,-0.0612709941913104,0.0163986124251025,-0.0290739666941333,-0.152821436201056,-0.148960844752342,0.00208034506261381,0.0268410290841395,0.374416333506272
0.42,1,-0.00415560370698162,0.000152592547379986,0.000152592547379986,-0.0252388073366497,-0.00713115838089134,0.0249081901506597,-0.0292469049144973,-0.157811212500381,-0.00737530645669932,-0.0607979572944324,0.0383007293923765,-0.0169835505233924,-0.151234473708304,-0.14683980834376,0.00259407330545976,0.0269376710308135,0.383180232144129
0.45,1,-0.00360118411816767,0.000152592547379986,0.000152592547379986,-0.0262459181493576,-0.000361135695465967,0.0266680908637755,-0.0240994496495458,-0.159011607206437,-0.00670389924822738,-0.0582344024984486,0.0510066021708833,-0.00887071342102318,-0.147495956297494,-0.143665883358257,0.00228888821069979,0.0243079927976318,0.39008250170395
0.48,1,-0.00208543148085981,0.000152592547379986,0.000152592547379986,-0.0263527329325236,0.000152592547379986,0.0246030050558997,-0.0202948088015381,-0.157892595192317,-0.00534073915829951,-0.054043193863745,0.0333669036937569,-0.0087130344553972,-0.142958871222063,-0.140639464501887,0.00140385143589587,0.0234992522965178,0.403887040823593
0.51,1,0.000701925717947935,0.00457269000315358,-0.000569678843551948,-0.0285958433790094,-0.0076499730419833,0.0262662638223416,-0.0193589078442742,-0.160415458642333,-0.00619525742362743,-0.0528682312489191,0.0011240984323659,-0.00691752881455936,-0.136926379182307,-0.137475712352875,-0.00185145624154383,0.0308186081525112,0.421847183650217
0.54,1,0.00210069073559781,0.000513728242845953,-0.00134281441694388,-0.0288399914548173,0.000122074037903989,0.0278125349691254,-0.0245470544551937,-0.159906816817733,-0.00466933194982757,-0.0457218136132898,-0.00522883795688752,-0.0192368338063702,-0.135837885677664,-0.137836848048341,-0.000783308409883928,0.0256965849787896,0.432813501388592
0.57,1,0.0032146163314717,-0.00054424675232195,-0.00139367859940387,-0.0289773247474593,0.000152592547379986,0.0258847824538916,-0.0250556962797937,-0.158157088941109,-0.00241096224860378,-0.0395469018626464,-0.00474562822351756,-0.0258288318531856,-0.136041342407503,-0.139179662465285,-0.00144454278186387,0.0258033997619556,0.435738191880042
0.6,1,0.00428276416313161,0.000315357931251971,-0.00385041861222165,-0.0289925840021973,0.000152592547379986,0.0258949552903836,-0.0252591530096337,-0.157119459618926,-0.00350962858973968,-0.0353251747184668,-0.00101219723095391,-0.0283923866491694,-0.136326181829279,-0.140481785536261,-0.00373343099256366,0.0259407330545976,0.437920265307576
0.63,1,0.00587481307412946,0.00385550503046765,-0.00172938220363984,-0.0290892259488713,0.000152592547379986,0.0259305602181056,-0.0262967823318176,-0.159133681244341,-0.00234992522965178,-0.0299539170506912,0.00630207220679342,-0.0237739188818018,-0.136743268125451,-0.142557044180629,-0.00388602353994364,0.0259407330545976,0.445997497482223
0.66,1,0.00616982533239743,0.000890123193049918,-0.00488296151615955,-0.0289976704204433,0.000152592547379986,0.0259814244005656,-0.0229804376354259,-0.159296446628213,-0.00200404878892382,-0.0254066591387677,0.00346893724377168,-0.0160781680756045,-0.135965046133813,-0.142012797428307,-0.00378429517502365,0.0259407330545976,0.45877966653442
0.69,1,0.00639871415346741,0.000152592547379986,-0.00341298664306569,-0.0290739666941333,0.000152592547379986,0.0258898688721376,-0.0248725852229377,-0.157424644713686,-0.00198370311593982,-0.0198675496688742,0.00878933072908719,-0.00527461572110151,-0.135212256233406,-0.141519414858445,-0.0032502212591937,0.0259407330545976,0.467126478876105
0.72,1,0.00657673879207739,0.000152592547379986,-0.00356557919044567,-0.0289925840021973,0.000152592547379986,0.0259712515640736,-0.0255846837773776,-0.157933286538285,-0.0021871598457798,-0.0121209346802169,0.0129805393637908,0.00270088808862575,-0.135288552507096,-0.141773735770745,-0.00366222113711966,0.0259407330545976,0.481007314269438
0.75,1,0.00671407208471938,0.000152592547379986,-0.00362661620939767,-0.0289925840021973,0.000152592547379986,0.0259305602181056,-0.0245674001281777,-0.158441928362885,-0.00086469110181992,-0.00773644215216529,0.0163680939156265,0.00591041800185146,-0.134896898302154,-0.141534674113183,-0.00366222113711966,0.0259407330545976,0.490651163263853
0.78,1,0.00679036835840938,0.000152592547379986,-0.00383007293923765,-0.0291095716218553,0.000152592547379986,0.0260170293282876,-0.0240587583035778,-0.158441928362885,-0.00188197475101983,-0.00591041800185146,0.0170140690328684,0.000930814539017914,-0.133493046866258,-0.140207118950977,-0.00366222113711966,0.0259407330545976,0.493881038850063
0.81,1,0.00673950417594938,0.000152592547379986,-0.00373343099256366,-0.0291451765495773,0.000152592547379986,0.0259610787275816,-0.0243232520523698,-0.158014669230221,-0.00188197475101983,-0.0032807397686697,0.0168513036489964,0.00194809818821782,-0.13271482487462,-0.139337341430911,-0.00366222113711966,0.0259407330545976,0.49501531011892
0.84,1,0.00666320790225939,0.000152592547379986,-0.00363678904588967,-0.0291451765495773,0.000152592547379986,0.0259610787275816,-0.0236518448438978,-0.158197780287077,-0.00167851802117985,-0.000442518387401959,0.0187892290007223,0.00127669097974588,-0.131585640024008,-0.138152205979593,-0.00366222113711966,0.0259407330545976,0.495722322255114
0.87,1,0.00669372641173538,0.000152592547379986,-0.00367239397361166,-0.0291451765495773,0.000152592547379986,0.0259661651458276,-0.0242011780144658,-0.157851903846349,-0.00173955504013184,-8.6469110181992e-05,0.0186976734722943,-0.000183111056855983,-0.130461541591642,-0.137012848292489,-0.00366222113711966,0.0259407330545976,0.499750765505946
0.9,1,0.00657673879207739,0.000152592547379986,-0.00370291248308766,-0.0291451765495773,0.000152592547379986,0.0259305602181056,-0.0241197953225298,-0.157607755770541,-0.000986765139723909,0.000915555284279916,0.0238044373912778,0.000396740623187963,-0.129759615873694,-0.136285490483311,-0.00366222113711966,0.0259407330545976,0.507802565589363
0.93,1,0.0065258746096174,0.000152592547379986,-0.00366730755536566,-0.0291451765495773,0.000152592547379986,0.0259814244005656,-0.022166610716066,-0.158482619708853,-0.00137333292641987,0.00262459181493576,0.0269274981943215,0.00237027090263578,-0.128106529943744,-0.134525589770196,-0.00361644337290567,0.0259407330545976,0.514821822768843
0.96,1,0.00640888698995941,0.000152592547379986,-0.00335703604235969,-0.0292112999867753,0.000152592547379986,0.0259712515640736,-0.0229804376354259,-0.158360545670949,-0.00147506129133986,0.00404878892381563,0.0242774742881558,-0.000564592425305948,-0.125868505915504,-0.13225704723248,-0.00320444349497971,0.0259407330545976,0.523387351095106
0.99,1,0.00640888698995941,0.000152592547379986,-0.0032400484227017,-0.0292977690969573,0.000152592547379986,0.0259203873816136,-0.0234483881140578,-0.158726767784661,-0.00086469110181992,0.00245165359457177,0.0260017700735496,-0.000142419710887987,-0.124912259285257,-0.131285541347494,-0.00320444349497971,0.0259407330545976,0.531596830144149
1.02,1,0.00631224504328542,0.000152592547379986,-0.00316883856725771,-0.0292977690969573,0.000152592547379986,0.0260119429100416,-0.0228787092705059,-0.158543656727805,-0.00182093773206783,0.00455234433016958,0.0289569790744753,0.00385041861222165,-0.123793247271137,-0.130049541713716,-0.00320444349497971,0.0259407330545976,0.544989369385866
1.05,1,0.00615456607765943,0.000152592547379986,-0.0032298755862097,-0.0292977690969573,0.000152592547379986,0.0260017700735496,-0.022044536678162,-0.158930224514501,-0.00180059205908383,0.00364187546413566,0.0281278929003774,0.00270088808862575,-0.122013000885037,-0.128076011434268,-0.00320444349497971,0.0259407330545976,0.552191737622201
1.08,1,0.00494908495335754,-0.00206508580787581,-0.000264493748791976,-0.0291706086408073,0.000152592547379986,0.0260628070925016,-0.0208848333180741,-0.159398174993133,-0.00127160456149988,0.00812809635710725,0.0246335235653757,0.00516780093793552,-0.120115766879279,-0.124993641977192,-0.00127669097974588,0.0259407330545976,0.558478550574257
1.11,1,0.00358592486342967,-0.00475071464176356,-0.000829086174097924,-0.0291095716218553,0.000152592547379986,0.0260424614195176,-0.0200099693797622,-0.158889533168533,-0.00131229590746788,0.00683614612262337,0.0156458225246946,0.00674459059419538,-0.117842137923317,-0.121377198604287,-9.15555284279916e-05,0.0259407330545976,0.559114352855007
1.14,1,0.00368256681010366,0.0010986663411359,-0.0022125919370098,-0.0289468062379833,0.000152592547379986,0.0260272021647796,-0.0195827102470982,-0.158767459130629,-0.00289925840021973,0.00683614612262337,0.00297046825566373,0.00456760358490758,-0.116794335764641,-0.120400606301055,-0.00318918424024171,0.0258339182714316,0.55969420453505
1.17,1,0.00174464145837784,-0.00226854253771579,0.000147506129133986,-0.0287433495081434,0.000152592547379986,0.0256864121422976,-0.0190130314035463,-0.158930224514501,-0.00230923388368379,0.00594602292957345,-0.00973540452284311,0.00253812270475377,-0.115746533605965,-0.117430138045391,0.000691752881455936,0.0254829554124577,0.560055340230516
1.2,1,0.000478123315123956,9.15555284279916e-05,0.000152592547379986,-0.0286416211432234,0.000152592547379986,0.0254575233212277,-0.021596931872514,-0.158604693746757,-0.0022278511917478,0.0032502212591937,-0.0184382661417483,0.00171412294890184,-0.116183965575121,-0.116524755597603,0.000152592547379986,0.0254829554124577,0.560589414146346
1.23,1,-0.00144962920010987,0.000152592547379986,0.000152592547379986,-0.0285348063600574,0.000152592547379986,0.0254320912299977,-0.0235501164789778,-0.159276100955229,-0.00263476465142776,0.00132755516220588,-0.011302021342611,-5.08641824599953e-06,-0.118162582272815,-0.116514582761111,0.000686666463209937,0.0254829554124577,0.561642302723268
1.26,1,-0.00373851741080966,0.000152592547379986,0.000152592547379986,-0.0285348063600574,0.000152592547379986,0.0254931282489497,-0.0278023621326334,-0.158970915860469,-0.00167851802117985,0.00257881405072176,0.0143335266172267,-0.00114444410534989,-0.121473840550961,-0.117521693573819,0.00207017222612181,0.0254829554124577,0.56427198095645
1.29,1,-0.00473036896877956,0.00440483820103559,0.00204982655313781,-0.0285348063600574,0.000152592547379986,0.0254727825759657,-0.0227362895596179,-0.157912940865301,-0.0022278511917478,0.00334686320586769,0.0338958911913409,-0.00151066621906186,-0.122592852565081,-0.117623421938739,0.00169886369416384,0.0254829554124577,0.563392030599892
1.32,1,-0.00674967701244138,-0.000559506007059949,0.00267545599739575,-0.0284483372498754,0.000152592547379986,0.0255185603401797,-0.0201930804366181,-0.158543656727805,-0.00086469110181992,0.00348419649850968,0.032593768120365,0.000239061657561978,-0.120136112552263,-0.113142287464014,0.0043641468550676,0.0254829554124577,0.562990203558458
1.35,1,-0.00637328206223741,0.00503046764529354,0.000493382569861955,-0.0283059175389874,0.000152592547379986,0.0255490788496556,-0.0200913520716982,-0.158340199997965,-0.00228888821069979,0.00512710959196753,0.0271513005971455,0.00340790022481969,-0.117770928067873,-0.111153497929828,0.00102745648569191,0.0251625110629597,0.575721508428195
1.38,1,-0.00747194840337331,0.000411999877925962,0.00409456668802962,-0.0279651275165054,0.00148014770958586,0.0253151036103397,-0.0195827102470982,-0.159255755282245,-0.00269580167037975,0.00460320851262958,0.0223090304269539,0.00392162846766564,-0.115024262215033,-0.107318338572344,0.00415051728873562,0.0250251777703177,0.594525996683655
1.41,1,-0.00809757784763126,0.000152592547379986,0.00459812209438358,-0.0259407330545976,0.00665812148401339,0.02178004292937,-0.0192775251523382,-0.159052298552405,-0.0021871598457798,0.00621560309661143,0.0180466119368063,0.00252286345001577,-0.11286762087873,-0.104541154210028,0.00497451704458754,0.0174515010020244,0.612643818475906
1.44,1,-0.00857061474450921,0.000152592547379986,0.00494908495335754,-0.0263527329325236,0.000152592547379986,0.021383302306182,-0.0176091799676504,-0.158726767784661,-0.00208543148085981,0.00476597389650156,0.00424207281716361,0.000147506129133986,-0.110583819086276,-0.101784315520697,0.00520340586565752,0.0233619190038758,0.624164555803095
1.47,1,-0.00918098493402916,0.000152592547379986,0.00536108483128351,-0.0267749056469415,0.000152592547379986,0.0231788079470199,-0.0184433525599943,-0.159703360087893,-0.00200404878892382,0.00156661681976786,-0.0141249834691407,-0.00406913459679963,-0.109195226905118,-0.0997700938952808,0.00556962797936949,0.0237586596270638,0.627175715404726
1.5,1,-0.0101931821649831,0.000152592547379986,0.00573747978148747,-0.0270088808862575,0.000152592547379986,0.0238298694825078,-0.0226345611946979,-0.159560940377005,-0.00208543148085981,-0.00101219723095391,-0.0117292804752749,-0.00587989949237546,-0.110385448774682,-0.0999735506251208,0.00611896114993744,0.0239570299386578,0.635685293130284
1.53,1,-0.0115054780724509,0.000152592547379986,0.00644449191768141,-0.0272377697073275,0.000152592547379986,0.0240485854670858,-0.0232652770572019,-0.159215063936277,-0.00100711081270791,-0.00131229590746788,0.00900804671366517,-0.00793989888200527,-0.113244015828934,-0.101529994608397,0.00686157821385337,0.0240587583035778,0.641066723634551
1.56,1,-0.0124769839574369,0.000152592547379986,0.00718710898159734,-0.0274259671824295,0.000152592547379986,0.0242367829421878,-0.0190333770765302,-0.159113335571357,-0.00208543148085981,-0.00143945636361787,0.00899787387717317,-0.00844854070660522,-0.112623472802922,-0.0999023407696768,0.0075838496047853,0.0245674001281777,0.645680104983673
1.59,1,-0.0131992553483688,0.000152592547379986,0.00769066438795129,-0.0276752016764835,0.000152592547379986,0.0244148075807978,-0.0211493270668661,-0.159764397106845,-0.00224819686473179,-0.00278227078056174,0.0125380209763888,-0.00715150405387534,-0.11172317677338,-0.098284859767449,0.00798059022797327,0.0245674001281777,0.647022919400616
1.62,1,-0.0138401440473647,0.000152592547379986,0.00813826919359925,-0.0278786584063234,0.000152592547379986,0.0243792026530758,-0.0198268583229062,-0.158787804803613,-0.00149540696432386,-0.00353506068096967,0.0154474522131006,-0.00459812209438358,-0.11108737449263,-0.0970386872971791,0.00839259010589923,0.0248573259681997,0.6498407951089
1.65,1,-0.0142979216895047,0.000152592547379986,0.00852992339854122,-0.0279244361705374,0.000152592547379986,0.0246131778923917,-0.0189723400575783,-0.158747113457645,-0.00249234494053977,-0.00512202317372153,0.0114139225440229,-0.00535091199479151,-0.10958688111006,-0.0950549841812392,0.0086825159459212,0.0250251777703177,0.655751213110752
1.68,1,-0.0147251808221686,0.000152592547379986,0.00882493565680919,-0.0278074485508794,0.000152592547379986,0.0247301655120497,-0.0200303150527462,-0.158808150476597,-0.00261441897844376,-0.0065055289366334,0.010961231320129,-0.00665812148401339,-0.108640807316304,-0.0936663920000814,0.00885036774803919,0.0247657704397717,0.665435753451135
1.71,1,-0.0151168350271106,0.000152592547379986,0.00897244178594317,-0.0275989054027935,0.000152592547379986,0.0245521408734397,-0.0189316487116103,-0.158950570187485,-0.00228888821069979,-0.00832646666870123,0.011174860886461,-0.00416069012522762,-0.10803552354503,-0.0926999725333415,0.00917081209753716,0.0245674001281777,0.675069429609058
1.74,1,-0.0153558966846726,0.000152592547379986,0.00931831822667114,-0.0273140659810175,0.000152592547379986,0.0246691284930977,-0.0196030559200822,-0.158930224514501,-0.00206508580787581,-0.00838750368765323,0.00629698578854742,-0.00631224504328542,-0.10717083244321,-0.0916013061922056,0.00930814539017914,0.0243842890713218,0.677729626351716
1.77,1,-0.0155542669962666,0.000152592547379986,0.00940478733685313,-0.0270190537227495,0.000152592547379986,0.0243537705618458,-0.0197454756309702,-0.158930224514501,-0.0010681478316599,-0.0098117007965331,0.00464389985859757,-0.00602740562150945,-0.106926684367402,-0.0911537013865576,0.00930814539017914,0.0239570299386578,0.684240241706595
1.8,1,-0.0157729829808445,0.000152592547379986,0.00938952808211514,-0.0266731772820215,0.000152592547379986,0.0242367829421878,-0.0186671549628183,-0.158584348073773,-0.00141402427238787,-0.00953703421124912,0.000879950356557919,-0.00770083722444329,-0.10661132643615,-0.0906298003072197,0.00949125644703513,0.0236976226081118,0.686925870540483
1.83,1,-0.0159764397106845,0.000152592547379986,0.00969979959512111,-0.0263985106967376,0.000152592547379986,0.0236721905168818,-0.0199896237067782,-0.159092989898373,-0.00129195023448388,-0.010717083244321,0.000386567786695964,-0.00618508458713543,-0.106616412854396,-0.0904009114861497,0.00991851557969909,0.0234992522965178,0.687378561764377
1.86,1,-0.0161748100222785,0.000152592547379986,0.0097862687053031,-0.0261696218756676,0.000152592547379986,0.0235552028972238,-0.0195827102470982,-0.158279162979013,-9.15555284279916e-05,-0.0087028616189052,-0.00154627114678386,-0.0065411338643554,-0.106906338694418,-0.0905229855240537,0.00991851557969909,0.0233008819849239,0.684942167424543
1.89,1,-0.0164036988433485,0.000152592547379986,0.00992360199794509,-0.0259407330545976,0.000152592547379986,0.0231991536200039,-0.0189723400575783,-0.157994323557237,-0.000742617063915932,-0.00660725730155339,-0.0010528885769219,-0.00608335622221544,-0.107028412732322,-0.0904212571591337,0.00991851557969909,0.0230414746543779,0.686117130039369
1.92,1,-0.0165257728812525,0.000152592547379986,0.00990325632496109,-0.0257118442335276,0.000152592547379986,0.0230770795820999,-0.0195216732281462,-0.158747113457645,-0.000417086296171962,-0.00491348002563555,-0.00011190120141199,-0.00405896176030763,-0.106901252276172,-0.0901211584826197,0.00999481185338908,0.0230262153996399,0.684418266345205
1.95,1,-0.0166325876644185,0.000152592547379986,0.0101117994730471,-0.0254829554124577,0.000152592547379986,0.0227922401603239,-0.0191757967874182,-0.159255755282245,-0.000254320912299977,-0.00349436933500168,-0.0021769870092878,-0.00412508519750562,-0.106860560930204,-0.0900041708629617,0.010376293221839,0.0225836970122379,0.684291105889055
1.98,1,-0.0167699209570605,0.000152592547379986,0.010340688294117,-0.0253303628650777,0.000152592547379986,0.0226243883582059,-0.0200913520716982,-0.158848841822565,-0.000457777642139958,-0.0054729860326955,-6.61234371979939e-05,-0.00474054180527156,-0.107150486770226,-0.0901618498285877,0.010376293221839,0.0225836970122379,0.685115105644907
2.01,1,-0.0168818221584724,0.000152592547379986,0.010340688294117,-0.0253303628650777,0.000152592547379986,0.0226650797041739,-0.0207017222612181,-0.158136743268125,-0.000661234371979939,-0.00234992522965178,0.00232957955666779,-0.0043539740185756,-0.107918535925372,-0.0908434298735516,0.010376293221839,0.0225836970122379,0.685496587013357
2.04,1,-0.0171310566525264,0.000152592547379986,0.010340688294117,-0.0253303628650777,0.000152592547379986,0.0226345611946979,-0.0193995991902422,-0.158543656727805,-0.000722271390931934,-0.00136824650817387,0.00460829493087558,-0.00354523351746167,-0.108183029674164,-0.0907976521093376,0.010376293221839,0.0225836970122379,0.682632933540859
2.07,1,-0.0173853775648264,0.000152592547379986,0.010335601875871,-0.0253303628650777,0.000152592547379986,0.0226599932859279,-0.0200099693797622,-0.159235409609261,0.000172938220363984,-0.00145471561835587,0.00680562761314737,-0.00331634469639169,-0.107638782921842,-0.0900448622089297,0.010574663533433,0.0225836970122379,0.683731599881995
2.1,1,-0.0176346120588804,0.000152592547379986,0.010732342499059,-0.0253303628650777,0.000152592547379986,0.0225836970122379,-0.0189519943845943,-0.159154026917325,-0.000396740623187963,-0.000315357931251971,0.0087282937101352,-0.00302641885636972,-0.107287820062868,-0.0894243191829178,0.010834070863979,0.0225836970122379,0.683823155410423
2.13,1,-0.0178940193894264,0.000152592547379986,0.010839157282225,-0.0241910051779738,0.00714133121738334,0.0220597959329,-0.0192571794793542,-0.158869187495549,-0.000396740623187963,0.00168869085767184,0.0100711081270791,-0.0032603940956857,-0.106336659850866,-0.0882188380586159,0.010834070863979,0.0174972787662384,0.687322611163671
2.16,1,-0.0181025625375123,0.000152592547379986,0.010884935046439,-0.0233568325856299,0.000956246630247912,0.0172582171086764,-0.0199896237067782,-0.158828496149581,-0.000600197353027945,0.000808740501113926,0.00786360260831528,-0.00511185033722953,-0.106214585812962,-0.0878831344543799,0.010879848628193,0.0193487350077822,0.684514908291879
2.19,1,-0.0183517970315663,0.000152592547379986,0.011174860886461,-0.0236721905168818,0.000152592547379986,0.0195064139734082,-0.0183823155410423,-0.159377829320149,-0.00086469110181992,-0.00065614795373394,0.011134169540493,-0.00695822016052736,-0.105370240384126,-0.086809900204474,0.011291848506119,0.0210577715384381,0.682114118879767
2.22,1,-0.0185603401796523,0.000152592547379986,0.011322367015595,-0.0238044373912778,0.000152592547379986,0.0205491297138381,-0.0191554511144342,-0.159133681244341,-0.00086469110181992,-0.000254320912299977,0.010396638894823,-0.00717693614510534,-0.104434339426862,-0.0856552832626321,0.011291848506119,0.0210577715384381,0.680572934151229
2.25,1,-0.0188197475101983,0.000152592547379986,0.011378317616301,-0.0237484867905718,0.000152592547379986,0.0211696727398501,-0.0191554511144342,-0.158950570187485,0.000295012258267973,-0.000696839299701936,0.00927762688070314,-0.00945565151931313,-0.103976561784722,-0.0849533575446842,0.011291848506119,0.0210577715384381,0.682297229936623
2.28,1,-0.0211137221391441,-0.00707012136193935,0.0134942676066368,-0.0236264127526678,0.000152592547379986,0.021368043051444,-0.0188706116926583,-0.159459212012085,-5.08641824599953e-05,-0.00319935707673371,0.011261329996643,-0.00935900957263914,-0.10363577176224,-0.0823084200567644,0.0159815261289305,0.0210577715384381,0.683975747957803
2.31,1,-0.021352783796706,-0.00130720948922188,0.0156916002889086,-0.0224870550655639,0.00675984984893338,0.0206508580787581,-0.0191554511144342,-0.159540594704021,-0.000233975239315978,-0.0065411338643554,0.0158441928362885,-0.010386466058331,-0.103376364431694,-0.0817946918139185,0.0141453291421247,0.0166071555731885,0.686127302875861
2.34,1,-0.021210364085818,0.000137333292641987,0.0130415763827428,-0.021357870214952,0.00137841934466587,0.0151422671183406,-0.0190333770765302,-0.158991261533453,-1.01728364919991e-05,-0.00952686137475712,0.011225725068921,-0.010661132643615,-0.102796512751651,-0.0814182968637145,0.0128940702536088,0.0169988097781304,0.689667449975077
2.37,1,-0.021256141850032,0.000152592547379986,0.0126702678507848,-0.021510462762332,0.000152592547379986,0.0173650318918424,-0.0169784641051464,-0.158930224514501,0.000132246874395988,-0.010966317738375,0.011322367015595,-0.00948108361054313,-0.101204463840653,-0.0797702973520107,0.0128177739799188,0.0190740684224982,0.69973347168391
2.4,1,-0.021566413363038,0.000152592547379986,0.0131076998199408,-0.0208288827173681,0.00423698639891761,0.0190791548407442,-0.0187688833277383,-0.159113335571357,-0.00043743196915596,-0.0154067608671326,0.0150354523351746,-0.0087232072918892,-0.100243130792159,-0.0784478286080508,0.0132602923673208,0.0178787601346884,0.711671295307271
2.43,1,-0.0230719931638539,-0.00479649240597756,0.0141809340698467,-0.0195165868099002,-0.000737530645669932,0.00669372641173538,-0.0203151544745221,-0.158055360576189,0.0010478021586759,-0.0166020691549425,0.00801619515569526,-0.00804162724692526,-0.101911475976847,-0.0786004211554308,0.0156712546159246,0.0155237484867906,0.724763735872473
2.46,1,-0.0248166346222317,-0.00399792474135563,0.0185043895789463,-0.0187688833277383,0.00475071464176356,0.0127567369609668,-0.0180364391003143,-0.159499903358053,0.000478123315123956,-0.0207068086794641,0.00798567664621926,-0.00340281380657369,-0.102206488235115,-0.0772169153925189,0.0174820195115004,0.0138503168838567,0.740201015249082
2.49,1,-0.0280719422996714,-0.00953194779300312,0.0195623645741142,-0.0176905626595864,0.00675984984893338,0.0132704652038128,-0.0174057232378104,-0.158625039419741,0.000640888698995941,-0.021581672617776,0.00403861608732363,-0.00481175166071556,-0.102038636432997,-0.0737581509852392,0.0211442406486201,0.0122735272275969,0.757525355794956
2.52,1,-0.0314289783420311,-0.011271502833135,0.0233822646768598,-0.0164749086987925,0.00137841934466587,0.00571204769025747,-0.0198675496688742,-0.159276100955229,0.00157678965625985,-0.0230465610726239,0.00378938159326965,-0.00388093712169764,-0.101296019369081,-0.0695923744417656,0.0248064617857397,0.0126499221778008,0.784417249061556
2.55,1,-0.0356761375774407,-0.0131280454929248,0.0266630044455295,-0.0164799951170385,0.000152592547379986,0.010956144901883,-0.0172429578539384,-0.158645385092725,0.000254320912299977,-0.0252133752454197,0.00464898627684357,-0.00578325754570147,-0.100802636799219,-0.064923042491938,0.0277057201859595,0.0148014770958586,0.818725140130823
2.58,1,-0.0397961363567003,-0.0130619220557268,0.0309508550269072,-0.0156763410341706,0.00533056632180751,0.0136163416445407,-0.0208034506261381,-0.159154026917325,0.00137333292641987,-0.0255745109408856,0.0232907091484319,-0.00944039226457513,-0.100187180191453,-0.0601672414319285,0.0311187068290251,0.0124566382844529,0.84425895972574
2.61,1,-0.043005666269926,-0.0102949105299031,0.0310068056276131,-0.0140385143589587,0.00280770287179174,0.00571204769025747,-0.0196844386120182,-0.159357483647165,0.00259407330545976,-0.0198472039958902,0.0236365855891598,-0.00717184972685934,-0.0995310322377188,-0.0563066499832148,0.0315917437259031,0.00881476282031719,0.863694163843704
2.64,1,-0.0475580106000956,-0.0129652801090528,0.0347453230384228,-0.0131941689301228,0.00533056632180751,0.00876898505610319,-0.0168360443942585,-0.159866125471765,0.00228888821069979,-0.0150303659169286,0.0312560401216671,-0.00672424492121138,-0.0983865881323689,-0.0505895158747113,0.0349894711142308,0.0101016266365551,0.880484430473749
2.67,1,-0.0498265531378114,-0.00746686198512731,0.0353760389009267,-0.0115309101636809,0.00280770287179174,0.00594093651132745,-0.021495203507594,-0.159764397106845,0.00393688772240364,-0.00448622089297159,0.0573646249783827,-0.011118910285755,-0.0962553788872951,-0.0461948505101677,0.0352488784447768,0.00664794864752139,0.897523931597847
2.7,1,-0.0517899105807672,-0.00639362773522141,0.032949817397585,-0.00903347880489517,0.00825017039501124,0.0032553076774397,-0.0132755516220588,-0.158604693746757,0.00367239397361166,0.00568661559902748,0.0626595863724682,-0.00775170140690329,-0.0927660959705395,-0.0407167780592263,0.0342671997232988,0.00296538183741773,0.902630695516831
2.73,1,-0.0549587491480249,-0.00911994791507716,0.0379039887691885,-0.00599180069378745,0.0117903174942269,0.000961333048493912,-0.0152490819015066,-0.158808150476597,0.00389619637643564,0.00967945392213711,0.065477462080752,-0.00728883734651733,-0.0876389863785719,-0.032492039755445,0.0380311492253385,-0.000625629444257942,0.896242154199856
2.76,1,-0.0597654143904945,-0.0151473535365866,0.0421867529323201,-0.00249234494053977,0.0116275521103549,-0.00254320912299977,-0.0162867112236905,-0.157709484135461,0.00291960407320373,0.0172480442721844,0.0582903530991546,-0.00550350454217149,-0.0838496047853023,-0.0238451287372458,0.04338206122013,-0.00694804732403536,0.88725953957742
2.79,1,-0.0636260058392081,-0.0124006876837469,0.0465966775516017,-0.000137333292641987,0.00900296029541917,-0.00129195023448388,-0.0226752525406659,-0.160557878353221,0.00350962858973968,0.0250506098615477,0.112674336985382,-0.0121260210984629,-0.0788750877407147,-0.0150252794986826,0.0459354431796218,-0.0043285419273456,0.885850601723279
2.82,1,-0.0634784997100742,-0.000854518265327921,0.0399487289040803,0.0053865169225135,0.0200760928169602,-0.00747194840337331,-0.0130720948922188,-0.159947508163701,0.00145471561835587,0.0315612252164271,0.132897935931476,-0.00332143111463769,-0.0700196335744296,-0.00632241787977742,0.0396231981363364,-0.0176244392223884,0.888688823104546
2.85,1,-0.0634225491093682,0.000152592547379986,0.0387432477797784,0.011001922666097,0.0162511062959685,-0.0164240445163325,-0.0140690328684347,-0.159886471144749,0.00287891272723574,0.0418205308186082,0.155644398327586,-0.00738039287494532,-0.0634276355276142,0.000127160456149988,0.0386059144871364,-0.021637623218482,0.887407045706554
2.88,1,-0.0633055614897102,0.000152592547379986,0.0386466058331044,0.0181890316476943,0.0223700674459059,-0.0237179682810958,-0.00898261462243517,-0.160110273547573,0.0022075055187638,0.0508387503687653,0.175949379965616,-0.00576291187271747,-0.054099144464451,0.00926236762596515,0.0386059144871364,-0.0298114973398033,0.889634896898302
2.91,1,-0.0631733146153142,0.000152592547379986,0.0385652231411685,0.0254320912299977,0.021785129347616,-0.0339111504460789,-0.0118920458591469,-0.160720643737093,0.00198370311593982,0.0599078341013825,0.189759005503505,-0.00570696127201147,-0.0450605792413099,0.0182144637389243,0.0386059144871364,-0.0390891242205064,0.888877020579648
2.94,1,-0.0630512405774102,0.000152592547379986,0.0386720379243344,0.032817570523189,0.0269834487950275,-0.0407829014964243,0.00157678965625985,-0.159276100955229,0.00076296273689993,0.0704214606158635,0.213181961526332,-0.00341807306131169,-0.0312865586311431,0.0318409782199571,0.0386059144871364,-0.0449791965493739,0.884680725526699
2.97,1,-0.0630207220679342,0.000152592547379986,0.0387229021067944,0.0421562344228441,0.0274259671824295,-0.0568051189713228,-0.0144556006551307,-0.163385926897997,0.0021464684998118,0.0808130130924406,0.226482945239621,-0.00460829493087558,-0.0197200435397402,0.043397320474868,0.0386059144871364,-0.0582445753349406,0.880769269895525
3,1,-0.0630207220679342,0.000152592547379986,0.0385703095594144,0.0498774173202714,0.0281634978280994,-0.0611336608986684,0.00833155308694723,-0.162327951902829,-0.00367239397361166,0.0844650613930682,0.258405306151514,-0.00332651753288369,-0.00734478794722332,0.0557420575579089,0.0386059144871364,-0.0603300068158005,0.885738700521867
3.03,1,-0.0629393393759982,0.000152592547379986,0.0387381613615324,0.0619118828903063,0.0383210750653605,-0.0813623462630085,-0.00473036896877956,-0.162856939400413,-0.00163782667521185,0.08681498662272,0.27983438622191,0.000752789900407931,0.00967436750389111,0.0728375092827133,0.0384228034302805,-0.0823796299122084,0.887050996429334
3.06,1,-0.0627358826461582,0.000152592547379986,0.0382193467004405,0.0723899044770653,0.0373750012716046,-0.0861537522507401,0.0132145146031068,-0.160496841334269,-0.00473036896877956,0.100090538244779,0.310525833918271,0.000966419466739911,0.0279956460259814,0.0909858495844396,0.0381481368449965,-0.087547430850144,0.881811985635955
3.09,1,-0.0626544999542222,0.000152592547379986,0.0381176183355205,0.0844650613930682,0.0356456190679647,-0.0998667358419548,-0.00497451704458754,-0.165990173039949,-0.00147506129133986,0.0962960702332631,0.327626372061322,-0.00208543148085981,0.0456149988301238,0.108483128350678,0.0381481368449965,-0.100070192571795,0.870418408764916
3.12,1,-0.0610573646249784,0.0054221218502355,0.0372936185796686,0.0953398236030152,0.0384228034302805,-0.107353943500066,0.00662251655629139,-0.164036988433485,-0.00444552954700359,0.113773003326518,0.39051484725486,-0.00225836970122379,0.0642516352834661,0.125532802311268,0.0354930265205847,-0.108523819696646,0.859889522995697
3.15,1,-0.0565304523860388,0.0142012797428307,0.0299793491419212,0.106784264656514,0.0303252255826492,-0.117730236721905,-0.00912503433332316,-0.187353129673147,-0.00338755455183569,0.135349589526048,0.45605843277281,0.00958281197546312,0.0896532080039878,0.146427808465835,0.0290637938576413,-0.118889940081993,0.831629383220924
3.18,1,-0.0415763827428002,0.0473952452162236,0.0138350576291187,0.11256243578397,0.0159815261289305,-0.110741498051902,-0.021820734275338,-0.210221666107161,-0.0185654265978983,0.145817438276315,0.624154382966603,0.0278227078056174,0.121351766513057,0.163172297331665,0.00514745526495153,-0.111453596606342,0.757093010244046
3.21,1,-0.021352783796706,0.0553402305164749,-0.00709046703492335,0.11383404034547,-5.08641824599953e-05,-0.0995513779107028,0.0363678904588967,-0.199438459425642,-0.011037527593819,0.0915860469374676,0.678212836085086,-0.0160527359843745,0.163487655262917,0.185094759971923,-0.011027354757327,-0.101443525498215,0.572567929115675
3.24,1,0.0193894263537502,0.117964211961221,-0.0494501581876075,0.108127079073458,-0.0269681895402895,-0.0809757784763125,0.000152592547379986,-0.180313526820683,-0.0352488784447768,0.15500350962859,0.590746787926878,0.142551957762383,0.199723298847418,0.180435600858587,-0.0643431908118941,-0.0798160751162247,0.331817580696025
3.27,1,0.0516983550523392,0.0917488123213396,-0.0779951373841568,0.0940682190415154,-0.053854996388643,-0.0535905026398511,0.0243639433983378,-0.149998474074526,-0.0126651814325388,0.177129428998688,0.346527502263456,0.15520696635843,0.228603981648203,0.176997182124292,-0.0793074332916247,-0.0490330718914355,0.15017141229489
3.3,1,0.0699687693919696,0.0478631956948556,-0.0678629922381258,0.0711895097710094,-0.0797652109337647,-0.0256762393058056,-0.142511266416415,-0.136000651061535,-0.0198675496688742,0.14747561062451,-0.0416475925982442,0.118045594653157,0.23769849747205,0.167811110772017,-0.0680054119490137,-0.00837224443291523,0.0616880804874823
3.33,1,0.0767743970051169,0.0125736259041108,-0.0550859096041749,0.0559607735424869,-0.0354218166651407,-0.0021973326822718,-0.198380484430474,-0.124973296304209,-0.0128279468164108,0.145318969288207,-0.444247769605599,-0.10600095624663,0.222388378551592,0.145695364238411,-0.054577267779575,-0.0173752047283344,0.0248318938769697
3.36,1,0.075512965280109,-0.010945972065391,-0.043753369752088,0.0537939593696911,-0.00384533219397565,-0.0206813765882341,-0.187190364289275,-0.158258817306029,-0.0101423179825231,0.109836115604114,-0.767174291207617,-0.334238715781121,0.184820093386639,0.109378337961974,-0.0414237901954202,-0.0461236406547238,0.00767031871496729
3.39,1,0.0704062013611255,-0.0223395489364299,-0.0349843846959848,0.043773715425072,-0.04391613513596,-0.0244961902727337,-0.141616056805119,-0.178645181635996,-0.0139673045035147,0.0704672383800775,-1.01350952686137,-0.464084800764997,0.130456455173396,0.0601519821771905,-0.032522558264921,-0.0119734285510829,0.00416069012522762
3.42,1,0.0601214636677145,-0.0374665568000326,-0.0237332275358338,0.0315357931251971,-0.0309762871181372,0.00245165359457177,-0.0968555762403231,-0.198339793084506,-0.0188502660196743,0.0232042400382499,-1.20136112552263,-0.48165328938668,0.0633869441816462,0.00341807306131169,-0.0186264636168503,-0.000691752881455936,0.00224819686473179
3.45,1,0.0494399853511155,-0.0367341125726086,-0.0138350576291187,0.0301014231798252,-0.000844345428835922,-0.00887071342102318,-0.064994252347382,-0.223120822779015,-0.0200303150527462,-0.0146285388754947,-1.27764722637613,-0.440575375631987,-0.0116784162928149,-0.0609963276060264,-0.0114953052359589,-0.0255643381043936,0.00174972787662384
3.48,1,0.0422274442782881,-0.0244148075807978,-0.0114342682170069,0.0258491775261696,-0.0179957477543463,-0.0154118472853786,-0.0408235928423922,-0.225074007385479,-0.0230007833084099,-0.0503555406353954,-1.3172297331665,-0.347382020528784,-0.0893988870916878,-0.131534775841548,-0.0122175766268909,-0.0120039470605589,0.00167851802117985
3.51,1,0.0377717418947925,-0.0128788109988708,-0.0148319956053346,0.0209458703370261,-0.0124820703756829,-0.00252286345001577,-0.0234076967680898,-0.228776919868567,-0.0298776207770012,-0.0519119846186712,-1.42574338002665,-0.248257901750745,-0.171320739361756,-0.208980580055137,-0.0157678965625985,-0.00675476343068738,0.00167851802117985
3.54,1,0.0255541652679016,-0.0307219662058372,-0.00944039226457513,0.0204779198583941,9.15555284279916e-05,-0.00665303506576739,0.0596026490066225,-0.242042298654134,-0.0383821120843125,-0.0482395906450596,-1.36371959593493,-0.0971200699891151,-0.257362590411084,-0.28283537298705,-0.00416069012522762,-0.0175786614581744,0.00167851802117985
3.57,1,-0.000590024516535946,-0.0737022003845332,0.0222785119174779,0.0190638955860062,-0.0054221218502355,-0.00861639250872321,0.111972411267434,-0.223487044892727,-0.0389110995818964,-0.0231737215287739,-1.20816675313578,-0.0291350037130853,-0.334625283567817,-0.333852147994425,0.0344960885443688,-0.011139255958739,0.00167851802117985
3.6,1,-0.021403647979166,-0.0581479333882666,0.043834752444024,0.0188502660196743,-0.00171920936714784,-0.00602231920326345,0.172236294646036,-0.218278552608824,-0.0366730755536566,-0.0126041444135868,-0.759890540279346,0.0246080914741457,-0.3930071921954,-0.371410260322886,0.0440382091738639,-0.0167444888658305,0.00167851802117985
3.63,1,-0.0311085339925331,-0.0237434003723258,0.0345164342173528,0.0187078463087863,0.000122074037903989,-0.00631733146153142,0.169591357158116,-0.192317473881242,-0.0333770765302489,-0.00263476465142776,-0.384980824203213,0.0714540035198014,-0.425885799737541,-0.394573809015168,0.032156336151209,-0.0159815261289305,0.00167851802117985
3.66,1,-0.0367239397361166,-0.010844243700471,0.0280058188624734,0.0180059205908383,-0.000203456729839981,-0.010966317738375,0.145583463036999,-0.175634022034364,-0.0253201900285857,0.00371308531957966,-0.117221594897305,0.0663065482548499,-0.440219326354767,-0.403281757052319,0.0280973743909014,-0.0147709585863826,0.00167851802117985
3.69,1,-0.0394604327524644,-0.00243130792158778,0.0275276955473495,0.0181076489557583,0.000152592547379986,-0.0137943662831507,0.114942879523097,-0.169937233598844,-0.0168563900672424,0.00593076367483545,0.108981597338786,0.0158187607450585,-0.4396699931842,-0.399985758028911,0.0259814244005656,-0.0154118472853786,0.00167851802117985
3.72,1,-0.0407625558234403,0.000101728364919991,0.0248827580594297,0.0180567847732983,0.000152592547379986,-0.0147913042593666,0.0823898027487004,-0.166478469191565,-0.0120548112430189,0.000122074037903989,0.266599525945819,-0.0683004242072817,-0.428042441073845,-0.387035737174596,0.0249336222418897,-0.0154118472853786,0.00167851802117985
3.75,1,-0.0391349019847204,0.00799584948271126,0.021637623218482,0.0167444888658305,-0.00408948026978362,-0.0100507624540951,0.0596433403525905,-0.169489628793196,-0.0122175766268909,-0.0076194545325073,0.406089459924111,-0.0893887142551958,-0.407310200303151,-0.367951495915606,0.0201829076001261,-0.00948108361054313,0.00167851802117985
3.78,1,-0.0397249265012563,0.00122074037903989,0.022268339080986,0.0166122419914345,-0.00305185094759972,-0.00615456607765943,0.0421867529323201,-0.177587206640828,-0.0142521439252907,-0.0414543087048962,0.496587013356934,-0.0392061118401644,-0.380057171341085,-0.340118615273497,0.0236111534979298,-0.0145166376740827,0.00167851802117985
3.81,1,-0.0375682851649525,0.00823999755851924,0.0210170801924701,0.0166325876644185,0.000142419710887987,-0.00497451704458754,0.0280261645354574,-0.188655252744123,-0.0226345611946979,-0.0667948444064659,0.592984811955117,0.0391349019847204,-0.346964934232612,-0.309162673828344,0.0191351054414502,-0.0142216254158147,0.00167851802117985
3.84,1,-0.0354726808476007,0.0087282937101352,0.0180160934273303,0.0157780693990905,-0.000223802402823979,-0.00516780093793552,0.0137841934466587,-0.193538214260282,-0.0291451765495773,-0.0780256558936328,0.641865291299173,0.0845260984120202,-0.309732352671896,-0.274025696584979,0.0172226121809544,-0.0127669097974588,0.00167851802117985
3.87,1,-0.0353200883002208,0.00165817234819585,0.0196030559200822,0.0159204891099785,0.000152592547379986,-0.00971505884985911,-0.0179550564083783,-0.198624632506282,-0.0346385082552568,-0.0815047659738965,0.669006419059826,0.104749697358114,-0.270088808862575,-0.234575436669006,0.0210882900479141,-0.0134281441694388,0.00167851802117985
3.9,1,-0.0333363851842809,0.0075889360230313,0.0174769330932544,0.0160222174748985,0.000152592547379986,-0.0118106631672109,-0.0770795820998769,-0.186620685445723,-0.0405387534206163,-0.0702739544867295,0.633676157923114,0.0701925717947935,-0.230608030437127,-0.197068188523006,0.0161646371857865,-0.0134281441694388,0.00167851802117985
3.93,1,-0.032217373170161,0.00535091199479151,0.0186366364533423,0.0158797977640105,0.000152592547379986,-0.0129805393637908,-0.0849330118717002,-0.167739900916573,-0.0420036418754641,-0.0456149988301238,0.54582354197821,-0.0159001434369945,-0.19571520126957,-0.163304544206061,0.0177515996785384,-0.0134281441694388,0.00167851802117985
3.96,1,-0.0311187068290251,0.00410982594276762,0.0151982177190466,0.0134281441694388,-0.00767031871496729,-0.00747703482161931,-0.0376496678568885,-0.160618915372173,-0.0444044312875759,-0.0122989593188269,0.537288532161423,-0.107567573066398,-0.164555803094577,-0.13322346669922,0.0161849828587705,-0.00603249203975545,0.00167851802117985
3.99,1,-0.0281787570828374,0.00929797255368714,0.0159204891099785,0.0134281441694388,0.000142419710887987,-0.00600197353027945,-0.0183619698680583,-0.163955605741549,-0.0457065543585518,0.0594805749687185,0.554724773908709,-0.161005483158869,-0.132480849635304,-0.104108808659118,0.0138554033021027,-0.011352885525071,0.00167851802117985
4.02,1,-0.0253303628650777,0.00831120741396323,0.010773033845027,0.0134281441694388,0.000152592547379986,-0.00919624418876715,-0.0181992044841863,-0.167007456689149,-0.0421664072593361,0.104312265388958,0.586820073040966,-0.123447370830409,-0.098178044984283,-0.0726238797163813,0.010488194423251,-0.0114444410534989,0.00167851802117985
4.05,1,-0.0231737215287739,0.0021566413363038,0.0134077984964548,0.0132552059490748,0.000152592547379986,-0.010773033845027,-0.0204779198583941,-0.169489628793196,-0.032359792881049,0.127719962157048,0.621082186346019,-0.0586464023763746,-0.0618305001983703,-0.0384329762667725,0.0138757489750867,-0.011230811487167,0.00167851802117985
4.08,1,-0.0172124393444624,0.00927762688070314,0.00992868841619108,0.0114139225440229,-0.00753807184057131,-0.0087384665466272,-0.0455030976287118,-0.15724153365683,-0.021413820815658,0.149337239702546,0.542029073966694,-0.00934883673614714,-0.032512385428429,-0.0150761436811426,0.00661234371979939,-0.00458794925789158,0.00167851802117985
4.11,1,-0.0117801446577349,0.00671407208471938,0.00368256681010366,0.010834070863979,1.01728364919991e-05,-0.00400809757784763,-0.0495315408795434,-0.158543656727805,-0.00700908434298736,0.0969267860957671,0.39214250109358,0.076530248929309,-0.0185145624154383,-0.0065207881913714,0.0032858261869157,-0.0087588122196112,0.00167851802117985
4.14,1,-0.00898261462243517,0.000488296151615955,0.00514745526495153,0.010986663411359,0.000152592547379986,-0.00670389924822738,-0.0792362234361807,-0.154555904822942,0.00186162907803583,0.054343292540259,0.26451409446496,0.131677195552436,-0.0189926857305623,-0.0097659230323191,0.00537125766777551,-0.00900296029541917,0.00167851802117985
4.17,1,-0.00749738049460331,0.000152592547379986,0.00493382569861955,0.011088391776279,0.000152592547379986,-0.00807723217464726,-0.162775556708477,-0.138889736625263,0.0142317982523067,0.00837224443291523,-0.0520950956755272,0.0618915372173223,-0.0124006876837469,-0.00469985045930357,0.00454725791192358,-0.00924710837122715,0.00167851802117985
4.2,1,-0.0129907122002828,-0.0133671071504868,0.00591041800185146,0.0125329345581428,0.00735496078371532,-0.00944039226457513,-0.162205877864925,-0.15378276924955,0.0240791039765618,-0.0181788588112023,-0.203222754600665,0.0358490757978047,-0.0319732250943531,-0.0187790561642303,0.0115766879278949,-0.0150049338256986,0.00167851802117985
4.23,1,-0.0256762393058056,-0.0334075950397249,0.0268562883388775,0.0134383170059308,0.000783308409883928,-0.0134077984964548,-0.0275582140568255,-0.182022563351339,-0.0076194545325073,-0.0523799350973032,-0.223090304269539,-0.0188807845291503,-0.0486566769412315,-0.0227464623961099,0.033143101290933,-0.0124922432121749,0.0199896237067782
4.26,1,-0.0268155969929095,0.0021566413363038,0.0224412773013499,0.0152796004109826,0.00790429395428327,-0.0144352549821467,-0.00672424492121138,-0.171402122053692,-0.0308135217342652,-0.0930611082288074,-0.149754325998718,-0.0152999460839666,-0.0584327728100426,-0.0314035462508011,0.0166529333374025,-0.0182500686666463,0.103264463230283
4.29,1,-0.0297555467390973,-0.00331634469639169,0.0166529333374025,0.0156661681976786,0.000233975239315978,-0.0159713532924385,0.0075991088595233,-0.155491805780206,-0.0171819208349864,-0.118798384553565,-0.210435295673493,-0.00934883673614714,-0.0558081809951069,-0.0258084861802016,0.0186468092898343,-0.0135909095533107,0.193283893347982
4.32,1,-0.0372732729066846,-0.0187587104912463,0.0265205847346416,0.0154728843043306,0.000152592547379986,-0.0141097242144027,-0.00822982472202724,-0.171198665323852,-0.021291746777754,-0.144037191890215,-0.216040528580584,-0.0173345133823664,-0.065462202826014,-0.0279753003529974,0.0306405835139012,-0.0132145146031068,0.300098676513972
4.35,1,-0.0446689250363679,-0.0188909573656423,0.0372631000701926,0.0152694275744906,0.000152592547379986,-0.0134790083518988,-0.0200710063987142,-0.163711457665741,-0.0125837987406028,-0.137251909950051,-0.14778079571927,-0.0238553015737378,-0.076520076092817,-0.0316070029806411,0.0378022604042685,-0.0129703665272988,0.413495284890286
4.38,1,-0.0488703065075635,-0.00936918240913114,0.0346181625822728,0.0151371807000946,0.000152592547379986,-0.0133671071504868,-0.010467848750267,-0.163019704784285,-0.00920641702525915,-0.12508519750562,-0.097720267342143,-0.0250556962797937,-0.0840174565874203,-0.0349436933500168,0.0345672983998128,-0.0129703665272988,0.521785129347616
4.41,1,-0.053987243263039,-0.0129601936908068,0.0369986063214006,0.0135705638803268,-0.00728375092827133,-0.0114342682170069,-0.0102237006744591,-0.162165186518957,-0.00949125644703513,-0.117333496098717,-0.0906501459802037,-0.0201116977446821,-0.0877407147434919,-0.0335398419141209,0.0383719392478205,-0.00701925717947935,0.604185104932808
4.44,1,-0.0593890194402905,-0.0138859218115787,0.0442416659037039,0.0128076011434268,-0.000244148075807978,-0.00410982594276762,-0.0205999938962981,-0.163019704784285,-0.00859604683573921,-0.104139327168594,-0.0349843846959848,-0.0207932777896461,-0.0917589851578316,-0.032176681824193,0.043936480808944,-0.0100711081270791,0.672363455102186
4.47,1,-0.0600604266487625,-0.0010478021586759,0.0381176183355205,0.0129398480178228,0.000152592547379986,-0.00794498530025127,-0.00879950356557919,-0.159764397106845,-0.0075787631865393,-0.0959908851385032,-0.0147607857498906,-0.0210272530289621,-0.0885443688263599,-0.0282703126112654,0.0375784580014445,-0.010986663411359,0.723949908953113
4.5,1,-0.0606911425112664,0.000152592547379986,0.0370189519943846,0.0130619220557268,0.000152592547379986,-0.00992868841619108,-0.0114444410534989,-0.161188594215725,-0.00391654204941964,-0.0857977029735201,-0.000742617063915932,-0.0255846837773776,-0.0849431847081922,-0.0240485854670858,0.0371105075228126,-0.010986663411359,0.765587328714866
4.53,1,-0.0611794386628824,0.000152592547379986,0.0371715445417646,0.0139062674845627,0.00485244300668355,-0.010773033845027,-0.0118920458591469,-0.159927162490717,-0.00395723339538764,-0.0709148431857255,0.0179347107353944,-0.0283110039572334,-0.0818404695781325,-0.0204474013489181,0.0372325815607166,-0.0128991566718548,0.793206579790643
4.56,1,-0.0615253151036103,0.000152592547379986,0.0374563839635406,0.0154830571408226,0.0032858261869157,-0.0151982177190466,-0.0121361939349549,-0.160578224026205,-0.0021668141727958,-0.0558997365235349,0.0307830032247892,-0.0303557440921252,-0.0786055075736768,-0.0168665629037344,0.0376293221839045,-0.0174565874202704,0.812372203741569
4.59,1,-0.0618610187078463,0.000152592547379986,0.0376700135298725,0.0152694275744906,0.000152592547379986,-0.0142928352712587,-0.00932849106316314,-0.159764397106845,-0.00175990071311584,-0.0343841873429568,0.0475987019460636,-0.0259610787275816,-0.0731121758679973,-0.011007009084343,0.0376903592028565,-0.0129703665272988,0.821812596006144
4.62,1,-0.0621356852931303,0.000152592547379986,0.0376496678568885,0.0165206864630065,0.00700908434298736,-0.0136010823898027,-0.00855535548977121,-0.160008545182653,-0.00123091321553189,-0.0173345133823664,0.0610268461155024,-0.021942808313242,-0.0671407208471938,-0.00477106031474756,0.0378124332407605,-0.0178431552069664,0.825067903683584
4.65,1,-0.0624408703878903,0.000152592547379986,0.0381379640085045,0.0194809818821782,0.0087588122196112,-0.0188400931831823,-0.010467848750267,-0.159235409609261,-0.00163782667521185,-0.0021668141727958,0.0705994852544735,-0.0171920936714784,-0.0611285744804224,0.00140385143589587,0.0381481368449965,-0.0232754498936939,0.831822667114272
4.68,1,-0.0627155369731742,0.000152592547379986,0.0380972726625365,0.0208644876450901,0.00384533219397565,-0.0210882900479141,-0.00586972665588346,-0.160618915372173,-0.00188197475101983,0.00694804732403536,0.0833460493789483,-0.0133264158045188,-0.0552181564785709,0.0075584175135553,0.0381481368449965,-0.0186773277993103,0.834671061332031
4.71,1,-0.0629495122124902,0.000152592547379986,0.0382702108829005,0.0254117455570137,0.0170089826146224,-0.0261645354574216,-0.00562557858007548,-0.159479557685069,-0.00293994974618773,0.0174362417472864,0.101657155064547,-0.00549333170567949,-0.0455336161381878,0.0174667602567624,0.0383312479018525,-0.0337229529709769,0.830612099571724
4.74,1,-0.0632445244707582,0.000152592547379986,0.0387279885250404,0.0305693736584572,0.0169581184321624,-0.0350352488784448,-0.0064800968454034,-0.160130619220557,-0.00208543148085981,0.0312611265399131,0.11342712688579,-0.00641905982645141,-0.0386771243425804,0.0246386099836217,0.0386059144871364,-0.0386160873236284,0.827529730114648
4.77,1,-0.0634276355276142,0.000152592547379986,0.0386059144871364,0.0362356435845007,0.0195115003916542,-0.0404268522192043,-0.00481175166071556,-0.160049236528621,-0.00261441897844376,0.0445061596524959,0.134515416933704,-0.00671407208471938,-0.0302947070731732,0.0331532741274249,0.0386059144871364,-0.0443332214321319,0.836064739931435
4.8,1,-0.0634072898546302,0.000152592547379986,0.0387076428520564,0.0412711976480402,0.0146081932025107,-0.0467340108442437,-0.00595110934781945,-0.160944446139917,-0.00359101128167567,0.054668823308003,0.151005584887234,-0.00669372641173538,-0.0230719931638539,0.0404166793827123,0.0386059144871364,-0.0472833440148116,0.830907111829992
4.83,1,-0.0634784997100742,0.000152592547379986,0.0385855688141524,0.0468153935361797,0.0202439446190781,-0.0527970213934751,0.00157678965625985,-0.160049236528621,-0.00521866512039552,0.0680155847855057,0.173060294401888,-0.00662251655629139,-0.0119632557145909,0.0515762810144353,0.0386059144871364,-0.0536006754763431,0.82865891496526
4.86,1,-0.0635395367290262,0.000152592547379986,0.0386364329966124,0.0554623045543789,0.0309661142816452,-0.0676493626717938,-0.0010681478316599,-0.158218125960061,-0.00692770165105136,0.076306446526485,0.201523890906501,-0.00285856705425174,0.000223802402823979,0.0639362773522141,0.0386059144871364,-0.0692668436740216,0.831802321441288
4.89,1,-0.0636310922574541,0.000152592547379986,0.0387178156885484,0.0634581540370902,0.0245877458011617,-0.0738039287494532,-0.000498468988107954,-0.161758273059277,-0.00481175166071556,0.0839462467319763,0.22171697134312,-0.0101524908190151,0.010671305480107,0.0744855087944171,0.0386059144871364,-0.0733664967802972,0.830408642841884
4.92,1,-0.0637023021128981,0.000152592547379986,0.0386669515060884,0.0730307931760613,0.0343740145064648,-0.0853297524948882,0.00662251655629139,-0.159031952879421,-0.00851466414380322,0.0832544938505203,0.256772565894548,-0.00983713288776309,0.0257372763247576,0.0896735536769717,0.0386059144871364,-0.0862249621061841,0.830978321685436
4.95,1,-0.0636310922574541,0.000152592547379986,0.0387076428520564,0.0837224443291523,0.033041372926013,-0.0972014526810511,-0.00171920936714784,-0.163670766319773,-0.00595110934781945,0.0907722200181076,0.28751487777337,-0.0134586626789148,0.0400199387595243,0.103895179092786,0.0386059144871364,-0.097343872391939,0.829798272652364
4.98,1,-0.0637124749493901,0.000152592547379986,0.0386872971790724,0.0951872310556352,0.0404777164016643,-0.108472955514186,0.011017181920835,-0.159601631722973,-0.010467848750267,0.113294880011394,0.342804244107384,-0.00800602231920326,0.0581987975707266,0.122124902086449,0.0386059144871364,-0.109632658874274,0.827804396699932
5.01,1,-0.0637836848048341,0.000152592547379986,0.0386872971790724,0.108249153111362,0.0403047781813003,-0.123925494145533,0.00352997426272368,-0.169693085523036,-0.00827051606799524,0.137282428459527,0.386323638620156,0.000406913459679963,0.0796227912228767,0.143559068575091,0.0386059144871364,-0.124657938372957,0.820683411155532
5.04,1,-0.0630919319233782,0.00166834518468785,0.0389721366008484,0.120792260505997,0.0402132226528723,-0.132419812616352,0.0097964415417951,-0.169530320139164,-0.0159611804559465,0.163406272570981,0.435794142480748,0.0363271991129287,0.102847376934111,0.166183456933297,0.0384126305937885,-0.134576453952656,0.808638772749006
5.07,1,-0.0592364268929105,0.0123701691742709,0.032990508743553,0.128564307585884,0.0200710063987142,-0.128452406384472,0.00707012136193935,-0.192114017151402,-0.0142928352712587,0.162867112236905,0.501154616941842,0.0360118411816767,0.129347615995768,0.188797672455011,0.0309355957721692,-0.128472752057456,0.791121148309783
5.1,1,-0.0457675913775038,0.0420341603849401,0.0196437472660502,0.135451317890968,0.0195115003916542,-0.134098330637532,-0.0149032054607786,-0.211442406486201,-0.0250760419527777,0.17179886267688,0.728832870469273,0.0840479750968963,0.165542568234301,0.211544134851121,0.010915453555915,-0.133548997466964,0.750083925901059
5.13,2,-0.0186264636168503,0.075950397249265,-0.00950142928352713,0.137760551774651,0.000559506007059949,-0.125451419619332,0.043488876003296,-0.201269569994201,-0.0130720948922188,0.170140690328684,0.771029796238085,0.0484735658843755,0.213660084841456,0.232510350861131,-0.0199387595243182,-0.125634530676188,0.637063712474949
5.16,2,0.0316883856725771,0.14691610461745,-0.0556047242652669,0.133793145542772,-0.0164087852615945,-0.109927671132542,0.0065004425183874,-0.188411104668315,-0.054373811049735,0.238115583768222,0.716798404899238,0.227596870835495,0.257311726228624,0.225725068920967,-0.0552791934975229,-0.117597989847509,0.402579831334371
5.19,2,0.0915758741009756,0.186407055879391,-0.0246793013295897,0.11078218939787,-0.104342783898434,-0.123671173233233,-0.00192266609698782,-0.23622343618071,-0.0186061179438663,0.229956968901639,0.718263293354086,0.220180873032828,0.29957986185288,0.208115888953317,0.0255846837773776,-0.148981190425326,0.179774366486607
5.22,2,0.197159744051434,0.347117526779992,0.0449232459486679,0.0465712454603717,-0.247800124108605,-0.0987070324818669,-0.0411084322641682,-0.365540533667002,0.00247199926755577,0.226345611946979,0.957996358124536,-0.032135990478225,0.347849971007416,0.150761436811426,0.0369477421389406,-0.032135990478225,0.119724112674337
5.25,2,0.338175603503525,0.472691020437228,-0.010427157404299,0.0065309610278634,-0.0837122714926603,0.000803654082867926,-0.0292265592415133,-0.237810398673462,0.0100812809635711,0.00615456607765943,1.35896888129317,-0.0611082288074384,0.421603035574409,0.0835088147628203,-0.011271502833135,0.0511490218817713,0.0912096519872636
5.28,2,0.476424451429792,0.469537441124709,-0.0199285866878262,0.00694804732403536,0.0145166376740827,0.02223782057151,-0.113132114627522,-0.138971119317199,0.021352783796706,0.0369680878119246,0.867132582578,-0.258125553147984,0.488204596087527,0.0119022186956389,-0.0227668080690939,0.0295113986632893,0.0228380179245379
5.31,2,0.591285948260954,0.394512771996216,-0.0243741162348298,0.0130619220557268,0.0246996470025737,0.0262255724763736,-0.0918098493402915,-0.159235409609261,0.00251269061352377,-0.00828068890448724,0.418988616595965,-0.204423149306721,0.527736238695435,-0.0633157343262022,-0.0260628070925016,0.0248217210404777,0.00601214636677145
5.34,2,0.675262713502406,0.290505691702017,-0.021596931872514,0.0187892290007223,0.021769870092878,0.0238349559007538,-0.0901821955015717,-0.0962858973967711,0.0054831588691875,-0.0606606240017904,-0.264575131483912,0.0691651153091016,0.530462558875291,-0.144556006551307,-0.0225430056662699,0.021810561438846,0.00254320912299977
5.37,2,0.725079093803725,0.177251503036592,-0.0514033427940713,0.0241910051779738,0.0192266609698782,0.0206813765882341,-0.0442009745577359,-0.105197302163762,-0.00627664011556342,-0.0791141493982767,-0.726533809422081,0.0688497573778497,0.499506617430138,-0.225379192480239,-0.0706503494369335,0.00491348002563555,0.00181076489557583
5.4,2,0.704489272743919,-0.065401165807062,-0.0944649596647033,0.0242215236874498,-0.00472019613228757,0.00266528316090375,-0.205989766126489,0.0351471500798568,-0.00676493626717938,-0.0664693136387219,-1.79569892473118,0.109988708151494,0.425702688680685,-0.278572954496902,-0.0961638233588672,-0.0087282937101352,0.00167851802117985
5.43,2,0.623452457248655,-0.270017599007131,-0.0487482324696595,0.0198777225053662,-0.0120751569160029,-0.00267545599739575,-0.0452996408988718,-0.179052095095676,-0.00810775068412325,-0.135430972217984,-2.40469578132471,0.121422976368501,0.293527024140141,-0.329681285032706,-0.0499282815027314,-0.00272632017985575,0.00167851802117985
5.46,2,0.506556393119093,-0.391664377778456,-0.02203436384167,0.0190944140954822,0,-0.00356049277219967,-0.0508743552964873,-0.247372864975941,-0.00505589973652353,-0.174789676605528,-2.7960549740084,0.129693492436496,0.137323119805495,-0.369009470910774,-0.0120141198970509,-0.00634784997100742,0.00167851802117985
5.49,2,0.376903592028565,-0.430077008372244,0.0115359965819269,0.0188604388561663,0.000152592547379986,-0.00440483820103559,0.086581011383404,-0.407289854630166,-0.00717184972685934,-0.0698975595365256,-2.70148828597878,0.0972217983540351,-0.0338246813358969,-0.410596026490066,0.0131433047476628,-0.00622577593310343,0.00167851802117985
5.52,2,0.251330098371329,-0.417269407228818,0.0273547573269855,0.0186569821263263,0.000152592547379986,-0.00516780093793552,0.0637124749493901,-0.357280190435499,-0.0140079958494827,-0.149550869268878,-2.43052461317789,-0.166956592506689,-0.185847549872331,-0.437106438388216,0.0312204351939451,-0.00610370189519944,0.00167851802117985
5.55,2,0.149540696432386,-0.342163355408388,0.0315663116346731,0.0184128340505183,0.000152592547379986,-0.00585955381939146,0.0635497095655182,-0.3042593666392,-0.0198268583229062,-0.200913520716982,-1.94902391633859,-0.17719046601764,-0.314747561062451,-0.464186529129917,0.0343129774875128,-0.00610370189519944,0.00167851802117985
5.58,2,0.075838496047853,-0.249732963042085,0.0301726330352692,0.0182195501571703,0.000152592547379986,-0.00576799829096347,0.087516912340668,-0.252093061108229,-0.0356151005584887,-0.205094556515193,-1.42172510961231,-0.126733197017324,-0.41570279040905,-0.491480249437951,0.0306711020233772,-0.00610370189519944,0.00167851802117985
5.61,2,0.0294198431348613,-0.156997385581022,0.0234483881140578,0.0180466119368063,0.000152592547379986,-0.00595110934781945,0.0739260027873572,-0.196142460402234,-0.032563249610889,-0.118757693207597,-1.02743614001892,-0.00748720765811131,-0.488316497288939,-0.51763461205888,0.0223395489364299,-0.00610370189519944,0.00167851802117985
5.64,2,0.00558488723410749,-0.0810164698222806,0.0156051311787266,0.0180059205908383,0.000152592547379986,-0.00606301054923144,0.0707113864558855,-0.159886471144749,-0.0304472996205532,-0.106163721630502,-0.656951607816808,0.162358470412305,-0.537349569180375,-0.542842900886054,0.0133671071504868,-0.00610370189519944,0.00167851802117985
5.67,2,-0.0043641468550676,-0.0340281380657369,0.00928779971719515,0.0178736737164424,0.000152592547379986,-0.00614439324116743,0.0518306019267352,-0.139011810663167,-0.0234483881140578,-0.0908739483830276,-0.400901313313191,0.201116977446821,-0.568183436587624,-0.563575141656748,0.00673441775770338,-0.00610370189519944,0.00167851802117985
5.7,2,-0.00876898505610319,-0.0134688355154068,0.00491348002563555,0.0177922910245064,0.000152592547379986,-0.00623594876959543,0.0406404817855363,-0.133925392417168,-0.0187688833277383,-0.0729188919746493,-0.195572781558682,0.154932299773146,-0.580289112013103,-0.571306497390667,0.00367239397361166,-0.00610370189519944,0.00167851802117985
5.73,2,-0.00921658986175115,-0.000803654082867926,0.0011088391776279,0.0177007354960784,0.000152592547379986,-0.00617491175064343,0.0180567847732983,-0.134535762606688,-0.0149032054607786,-0.0609556362600584,-0.0357371745963927,0.0715048677022614,-0.559699290953297,-0.550269071525213,0.00137333292641987,-0.00610370189519944,0.00167851802117985
5.76,2,-0.00942004659159113,0.000152592547379986,0.000152592547379986,0.0177007354960784,0.000152592547379986,-0.00620543026011943,-5.08641824599953e-05,-0.143284401989807,-0.0120548112430189,-0.0564694153670868,0.086479283018484,-0.0130720948922188,-0.514491205582853,-0.504877875097913,0.0010681478316599,-0.00610370189519944,0.00167851802117985
5.79,2,-0.00913520716981516,0.000152592547379986,0.000152592547379986,0.0177007354960784,0.000152592547379986,-0.00611387473169144,-0.0118920458591469,-0.149591560614846,-0.0101423179825231,-0.0617999816888943,0.247728914253161,-0.0600705994852545,-0.439171524196092,-0.429843033132928,0.0010681478316599,-0.00610370189519944,0.00167851802117985
5.82,2,-0.00738547929319132,0.000152592547379986,0.000152592547379986,0.0176498713136184,0.000152592547379986,-0.00608335622221544,-0.032970163070569,-0.148777733695486,-0.010589922788171,-0.0658589434492019,0.437503179011404,-0.0563168228197068,-0.371186457920062,-0.363587349060539,0.00100711081270791,-0.00604266487624744,0.00167851802117985
5.85,2,0.00194301176997182,0.0175379701122064,-0.0010579749951679,0.0175481429486984,0.000152592547379986,-0.00605283771273944,-0.0857061474450921,-0.128513443403424,-0.00582903530991546,-0.086998097679576,0.261034984384696,-0.0584022543005666,-0.347331156346324,-0.349121575568916,-0.00201422162541581,-0.00564592425305948,0.00167851802117985
5.88,2,0.00802636799218726,0.00885036774803919,-0.00269580167037975,0.0174972787662384,0.000152592547379986,-0.00595110934781945,-0.075777459028901,-0.134739219336528,-0.0142114525793227,-0.110141300698874,0.289010284737693,0.0224616229743339,-0.334971160008545,-0.342926318145288,-0.00250251777703177,-0.00564592425305948,0.00167851802117985
5.91,2,0.0134891811883908,0.00799584948271126,-0.00252286345001577,0.0173955504013184,0.000152592547379986,-0.00576799829096347,-0.0854213080233161,-0.132012899156672,-0.0183212785220903,-0.122684408093509,0.212093468021688,0.128737245806248,-0.341451256853949,-0.354848882513911,-0.00261441897844376,-0.00564592425305948,0.00167851802117985
5.94,2,0.0177007354960784,0.00614439324116743,-0.00256355479598376,0.0173955504013184,0.000152592547379986,-0.00566626992604348,-0.0967335022024191,-0.128065838597776,-0.02137312946969,-0.118381298257393,0.161636199021373,0.217627491073336,-0.349223303933836,-0.36685282957447,-0.00284839421775974,-0.00564592425305948,0.00167851802117985
5.97,2,0.02122053692231,0.00417086296171962,-0.00355031993570767,0.0173955504013184,0.000152592547379986,-0.00553402305164749,-0.0903856522314117,-0.128269295327616,-0.0200710063987142,-0.111891028575498,0.112033448286386,0.250170395011241,-0.357748140914131,-0.378866949471521,-0.00335703604235969,-0.00564592425305948,0.00167851802117985
6,2,0.0230516474908699,0.000295012258267973,-0.00313323363953571,0.0173752047283344,0.000152592547379986,-0.00560523290709148,-0.0850957772555722,-0.12798445590584,-0.0169377727591784,-0.101514735353659,0.0590736615090386,0.21663055309712,-0.377859838658813,-0.400819930621255,-0.00274666585283975,-0.00564592425305948,0.00167851802117985
6.03,2,0.0244046347443058,0.000152592547379986,-0.00243130792158778,0.0172429578539384,0.000152592547379986,-0.00562557858007548,-0.0712607196264534,-0.124200160730817,-0.0144962920010987,-0.087252418591876,0.0314951017792291,0.138554033021027,-0.389477217932676,-0.413830988494522,-0.00305185094759972,-0.00564592425305948,0.00167851802117985
6.06,2,0.0253507085380617,0.000152592547379986,-0.00345876440727968,0.0172429578539384,0.000152592547379986,-0.00569678843551948,-0.0465610726238797,-0.120415865555793,-0.0138045391196427,-0.0773135573391929,0.0207729321166621,0.043600777204708,-0.391033661915952,-0.416292814925586,-0.00320444349497971,-0.00564592425305948,0.00167851802117985
6.09,2,0.0256813257240516,0.000152592547379986,-0.0032553076774397,0.0172429578539384,0.000152592547379986,-0.00561031932533748,-0.0277006337677135,-0.143487858719647,-0.0126855271055228,-0.0710063987141535,0.0459964801985738,-0.0275429548020875,-0.375128432060712,-0.400748720765811,-0.00320444349497971,-0.00564592425305948,0.00167851802117985
6.12,2,0.0252642394278797,0.000152592547379986,-0.00343333231604968,0.0172429578539384,0.000152592547379986,-0.00579343038219347,-0.0158391064180425,-0.152500991851558,-0.0189113030386263,-0.0681173131504257,0.0859960732851141,-0.0387686798710084,-0.331425926491083,-0.356598610390535,-0.00320444349497971,-0.00564592425305948,0.00167851802117985
6.15,2,0.0234890794600258,0.000152592547379986,-0.00274157943459375,0.0172429578539384,0.000152592547379986,-0.00560523290709148,-0.00611387473169144,-0.149571214941862,-0.0225735241757459,-0.0672882269763278,0.177566860967844,0.043336283455916,-0.286863816237882,-0.310271513005971,-0.00294503616443373,-0.00564592425305948,0.00167851802117985
6.18,2,0.0180771304462823,-0.0076143681142613,-0.0011240984323659,0.0172429578539384,0.000152592547379986,-0.00566118350779748,-0.000315357931251971,-0.155858027893918,-0.0234483881140578,-0.0706961272011475,0.386104922635578,0.146127709789321,-0.244992421236813,-0.26296273689993,-0.00101728364919991,-0.00564592425305948,0.00167851802117985
6.21,2,0.0158797977640105,-0.000808740501113926,0.000152592547379986,0.0172429578539384,0.000152592547379986,-0.00565609708955148,-0.0150252794986826,-0.164688049968973,-0.0237128818628498,-0.0584225999735506,0.551520330413729,0.170003357036042,-0.199565619881792,-0.21535894853562,-0.00157170323801386,-0.00564592425305948,0.00167851802117985
6.24,2,0.0169072542497024,0.00368256681010366,-0.000345876440727968,0.0172429578539384,0.000152592547379986,-0.00568152918078148,-0.0481073437706636,-0.172928047527492,-0.0202744631285541,-0.0318714967294331,0.634886725465661,0.0910112816756696,-0.159840693380535,-0.176641132847072,-0.0021261228268278,-0.00564592425305948,0.00167851802117985
6.27,2,0.0201930804366181,0.00512710959196753,-0.00347402366201768,0.0172429578539384,0.000152592547379986,-0.00571713410850347,-0.0712403739534695,-0.171219010996836,-0.0131331319111708,-7.12098554439934e-05,0.499603259376812,-0.0505081331827754,-0.126580604469944,-0.14668721579638,-0.00337229529709769,-0.00564592425305948,0.00167851802117985
6.3,2,0.021312092450738,0.000376394950203965,-0.00297046825566373,0.0172378714356924,0.000152592547379986,-0.00574765261797947,-0.261594490391756,-0.145420697653127,0.00483209733369956,-0.00223802402823979,0.287901445560066,-0.19772433647674,-0.0997700938952808,-0.121016062908821,-0.00274666585283975,-0.00564592425305948,0.00167851802117985
6.33,2,0.0181890316476943,-0.0076143681142613,-0.000371308531957966,0.0170903653065584,0.000152592547379986,-0.00563066499832148,-0.127414777062288,-0.159866125471765,-0.0133772799869788,0.0512761823379213,0.00716167689036734,-0.304671366517126,-0.097547329121779,-0.115624459568061,-0.0010478021586759,-0.00564592425305948,0.00167851802117985
6.36,2,0.0156916002889086,-0.000808740501113926,0.000152592547379986,0.0170445875423444,0.000152592547379986,-0.0054729860326955,-0.0793989888200527,-0.163121433149205,-0.000661234371979939,0.0166376740826645,0.333730073956521,-0.171692047893714,-0.0841547898800623,-0.0997395753858048,-0.00154118472853786,-0.00564592425305948,0.00167851802117985
6.39,2,0.0177363404238004,0.00510167750073753,-0.000666320790225939,0.0169377727591784,0.000152592547379986,-0.00567135634428948,-0.0968555762403231,-0.132379121270384,-0.0138248847926267,0.0772169153925189,0.165532395397809,-0.221218502355012,-0.0883866898607339,-0.10605182042909,-0.00245165359457177,-0.00564592425305948,0.00167851802117985
6.42,2,0.0205847346415601,0.00380972726625365,-0.00350454217149368,0.0169377727591784,0.000152592547379986,-0.00563575141656748,-0.0447096163823359,-0.150669881282998,-0.00949125644703513,0.0828933581550544,0.0592923774936166,-0.185405031484929,-0.103473006378368,-0.123981444746239,-0.0032807397686697,-0.00564592425305948,0.00167851802117985
6.45,2,0.021535894853562,0.000274666585283975,-0.00274157943459375,0.0169326863409324,0.000152592547379986,-0.00556962797936949,-0.0347605822931608,-0.147719758700318,-0.0054424675232195,0.11279132460504,0.0428937650685141,-0.133111565497808,-0.117613249102247,-0.139072847682119,-0.00274666585283975,-0.00564592425305948,0.00167851802117985
6.48,2,0.021622363963744,-0.000991851557969909,-0.00266019674265776,0.0167851802117985,0.000152592547379986,-0.0054577267779575,-0.0231635486922819,-0.156997385581022,0.00397757906837163,0.118889940081993,-0.0310322377188431,-0.0685242266101057,-0.122898037659841,-0.144398327585681,-0.00271106092511775,-0.00564592425305948,0.00167851802117985
6.51,2,0.0187536240730003,-0.00694804732403536,-0.000661234371979939,0.0167851802117985,0.000152592547379986,-0.00575782545447147,0.00904365164138717,-0.174759158096052,0.010793379518011,0.0795261492762027,-0.129896949166336,0.00715659047212134,-0.128065838597776,-0.146702475051118,-0.000915555284279916,-0.00564592425305948,0.00167851802117985
6.54,2,0.00887071342102318,-0.0229651783806879,0.00132755516220588,0.0159713532924385,-0.00502538122704754,-0.00554928230638549,-0.108717103589994,-0.212012085329753,0.0994598223822749,-0.143187760043133,0.0165054272082685,0.0184586118147323,-0.128198085472172,-0.136972156946521,0.00150557980081586,-0.00479649240597756,0.00225836970122379
6.57,2,-0.00640380057171341,-0.0406659138767663,0.00587481307412946,0.0101524908190151,-0.0255592516861476,0.00118513545131789,-0.0511795403912473,-0.235735140029094,0.00245165359457177,-0.0735445214189072,0.0966928108564511,0.123905148472549,-0.126361888485366,-0.119739371929075,0.00745668914863531,0.00192266609698782,0.0689362264880316
6.6,4,-0.010401725313069,-0.00728375092827133,0.00489313435265155,-0.00813318277535325,-0.0715862503941974,0.00898261462243517,-0.0750246691284931,-0.146336252937407,-0.0140486871954507,-0.0735750399283832,0.155496892198452,0.100171920936715,-0.125532802311268,-0.114886928922391,0.00315866573076571,0.0201066113264361,0.158513138218329
6.63,4,-0.0120649840795109,-0.000116987619657989,0.00275683868933175,-0.0315205338704591,-0.0781528163497828,0.0251675974812057,-0.0389517909278644,-0.14920499282815,-0.0115665150914029,-0.0485498621580655,0.178924934639526,-0.0722220526749474,-0.132312997833186,-0.120034384187343,0.00450148014770959,0.043092135380108,0.190079449853002
6.66,4,-0.0124159469384849,0.000152592547379986,0.00741091138442132,-0.04396699931842,-0.0245063631092257,0.0401369263791823,-0.0292875962604653,-0.189998067161067,0.011078218939787,-0.0286873989074374,0.307646921191036,-0.0290739666941333,-0.121819716991689,-0.109225745414594,0.00769066438795129,0.0338246813358969,0.237550991342916
6.69,4,-0.00704977568895535,0.0101423179825231,0.00350454217149368,-0.0446892707093519,-0.00266528316090375,0.0234178696045818,-0.0188299203466903,-0.149428795230974,-0.00696839299701936,-0.021861425621306,0.236889756970936,-0.0455488753929258,-0.10409354940438,-0.0968301441490931,0.00135807367168188,0.0164189580980865,0.281553595589058
6.72,4,0.00033061718598997,0.0149845881527146,-0.00560014648884548,-0.0485142572303435,-0.0137892798649047,0.021739351583402,-0.0315052746157211,-0.160456149988301,0.0043031098361156,-0.0253710542110457,0.120044557023835,-0.0367137668996246,-0.0945972065390993,-0.0948159225236773,-0.00803145441043326,0.0227668080690939,0.337509282713299
6.75,4,0.000366222113711966,-0.00452182582069358,0.000462864060385957,-0.0550045269122389,-0.0252337209184037,0.0191452782779422,-0.0401521856339203,-0.154108300017294,-0.00100711081270791,-0.0231126845098219,0.0901313313191117,-0.032644632302825,-0.0943123671173233,-0.0945005645924253,0.00286873989074374,0.0179855749178543,0.401303140354625
6.78,4,0.00238553015737378,0.00556962797936949,-0.00306202378409172,-0.064694153670868,-0.0332550024923449,0.0211086357208981,-0.0366120385347046,-0.156142867315694,0.00259407330545976,-0.0207576728619241,0.0778018534908088,-0.0597705008087405,-0.0989562669759209,-0.101255328023113,-0.00412508519750562,0.0236976226081118,0.470051169367555
6.81,4,0.00086977752006592,-0.00141911069063387,0.00180059205908383,-0.0752688172043011,-0.0359151992350027,0.0244097211625518,-0.0271513005971455,-0.163467309589933,0.00397757906837163,-0.0134332305876848,0.0582547481714326,-0.0483921831924395,-0.101397747734001,-0.102109846288441,0.00211594999033581,0.0262001403851436,0.541316975412254
6.84,4,-0.000854518265327921,-0.00168869085767184,-0.00262459181493576,-0.0844498021383302,-0.0275276955473495,0.0255185603401797,-0.0168563900672424,-0.166681925921405,0.00393688772240364,-0.0102593056021811,0.0146336252937407,-0.0151575263730786,-0.0990681681773329,-0.098040711691641,-1.52592547379986e-05,0.0256813257240516,0.605126092308318
6.87,4,-0.00555945514287749,-0.00675476343068738,0.00585955381939146,-0.086820073040966,-0.00281278929003774,0.02137312946969,-0.0395621611173844,-0.159255755282245,0.00310271513005971,0.000732444227423933,0.0602181056143885,-0.0152643411562446,-0.103172907701855,-0.097389650156153,0.00503555406353954,0.0177770317697684,0.651219214453566
6.9,4,-0.0097455773593351,-0.00575273903622547,0.00593076367483545,-0.086825159459212,0.000152592547379986,0.0170852788883124,-0.0277616707866654,-0.156916002889086,0.00188197475101983,0.00823491114027324,0.0510167750073753,-0.0146031067842647,-0.106041647592598,-0.0960875270851771,0.00572222052674947,0.0157170323801386,0.666514074119287
6.93,4,-0.0154220201218706,-0.0122735272275969,0.00535599841303751,-0.086845505132196,0.000152592547379986,0.0158747113457645,-0.0269071525213375,-0.157119459618926,0.00127160456149988,0.00364187546413566,0.0204117964211961,-0.0148523412783186,-0.108635720898058,-0.0930051576281015,0.00808740501113926,0.0157170323801386,0.664042074851731
6.96,4,-0.0230770795820999,-0.0197607348857082,0.0122074037903989,-0.086825159459212,0.000152592547379986,0.0157628101443525,-0.0304676452935372,-0.156407361064486,0.0021871598457798,-0.000361135695465967,-0.00178533280434584,-0.00445061596524959,-0.108249153111362,-0.0849533575446842,0.0142928352712587,0.0157170323801386,0.667149876400037
6.99,4,-0.0305388551489812,-0.0203558458204901,0.0160730816573585,-0.086677653330078,0.000152592547379986,0.0156000447604806,-0.0345367798903368,-0.156407361064486,0.00147506129133986,0.00163274025696585,0.00293486332794173,0.00115970336008789,-0.108406832076988,-0.0776441745251829,0.0157526373078605,0.0157170323801386,0.682994069236325
7.02,4,-0.0365103101697846,-0.0161849828587705,0.0135705638803268,-0.086672566911832,0.000152592547379986,0.0156661681976786,-0.0307931760612812,-0.156671854813278,0.00237027090263578,-0.00249743135878577,0.00307219662058372,-0.00663268939278339,-0.10806095563626,-0.0713064973906674,0.0127262184514908,0.0157170323801386,0.69815668202765
7.05,4,-0.043468530330312,-0.0199235002695802,0.0136265144810327,-0.08673869034903,0.000152592547379986,0.0156712546159246,-0.0317697683645131,-0.156854965870134,0.0021261228268278,-0.00158696249275185,-0.0124057741019929,-0.00489822077089755,-0.108437350586464,-0.064745017853328,0.0149744153162226,0.0157170323801386,0.731065808079267
7.08,4,-0.0495874914802494,-0.0178685872981964,0.0143080945259967,-0.086784468113244,0.000152592547379986,0.0155695262510046,-0.0342926318145288,-0.157465336059654,0.00367239397361166,0.00287891272723574,3.56049277219967e-05,-0.00421664072593361,-0.10879848628193,-0.0590177109083326,0.0138147119561347,0.0157170323801386,0.76423434146143
7.11,4,-0.0569221065909808,-0.02223782057151,0.0153508102664266,-0.086825159459212,0.000152592547379986,0.0158543656727805,-0.0272123376160975,-0.158421582689901,0.00308236945707572,0.00723288674581133,-0.0190588091677602,0.00517288735618152,-0.10945972065391,-0.0523188980783512,0.0165613778089745,0.0157170323801386,0.773227128920357
7.14,4,-0.0600756859035005,-0.00915555284279916,0.0151168350271106,-0.086850591550442,0.000152592547379986,0.0160222174748985,-0.0418408764915922,-0.158136743268125,0.00489313435265155,0.0134586626789148,0.0315663116346731,-0.00065106153548794,-0.109668263801996,-0.0493840347504095,0.010671305480107,0.0157170323801386,0.787458927172664
7.17,4,-0.0611031423891924,-0.00265002390616576,0.0032400484227017,-0.086901455732902,0.000152592547379986,0.0155898719239886,-0.0307321390423292,-0.156977039908038,0.00230923388368379,0.0225175735750399,0.0240994496495458,0.00909960224209316,-0.113208410901212,-0.0518916389456872,0.00148523412783186,0.0157170323801386,0.794544307789341
7.2,4,-0.0613422040467544,-0.000442518387401959,0.000600197353027945,-0.086825159459212,0.000152592547379986,0.0157272052166306,-0.032298755862097,-0.156712546159246,0.0022075055187638,0.0298572751040173,0.0245928322194077,0.00890123193049918,-0.121229692475153,-0.0596535131890825,0.0010732342499059,0.0157170323801386,0.793618579668569
7.23,4,-0.0614490188299203,0.000152592547379986,0.000152592547379986,-0.086972665588346,0.000152592547379986,0.0157526373078605,-0.0345571255633208,-0.157506027405622,0.00119022186956389,0.0337280393892229,0.0278633991515854,0.0086825159459212,-0.128482924893948,-0.0668507950071719,0.000228888821069979,0.0157170323801386,0.787789544358654
7.26,4,-0.0614947965941343,0.000152592547379986,0.000152592547379986,-0.086977752006592,0.000152592547379986,0.0155746126692506,-0.0333363851842809,-0.155776645201982,0.000132246874395988,0.032324187953327,0.0366272977894426,0.00479140598773156,-0.134734132918282,-0.0729951882483393,0.000152592547379986,0.0157170323801386,0.781965595466984
7.29,4,-0.0614947965941343,0.000152592547379986,0.000152592547379986,-0.086977752006592,0.000152592547379986,0.0158696249275185,-0.0353709524826807,-0.155796990874966,-0.00021362956633198,0.0273496709087395,0.0580614642780847,0.0022227647735018,-0.140161341186763,-0.0784122236803288,0.000152592547379986,0.0157170323801386,0.771355327005829
7.32,4,-0.0612760806095564,0.000152592547379986,0.000152592547379986,-0.086901455732902,0.000152592547379986,0.0154627114678386,-0.0336008789330729,-0.158157088941109,0.000335703604235969,0.021439252906888,0.0774305449588509,0.00828577532273324,-0.143065686005229,-0.0815607165746025,0.000152592547379986,0.0157170323801386,0.763873205765964
7.35,4,-0.0608030437126784,0.000152592547379986,0.000152592547379986,-0.086631875565864,0.000152592547379986,0.0157424644713686,-0.0331939654733929,-0.157221187983846,0.000356049277219967,0.0234890794600258,0.109449547817418,0.0120904161707409,-0.143330179754021,-0.0822677287107964,0.000152592547379986,0.0157170323801386,0.75935137994527
7.38,4,-0.0596229946796065,0.000152592547379986,0.000152592547379986,-0.0834630369986063,0.0131738232571388,0.0143233537807347,-0.0318104597104811,-0.158055360576189,0.000722271390931934,0.0257728812524796,0.159866125471765,0.0101982685832291,-0.140939563178401,-0.0810724204229865,0.000152592547379986,0.011337626270333,0.751029999694815
7.41,4,-0.0564388968576108,0.000645975117241941,0.000142419710887987,-0.0776289152704449,0.0235094251330098,0.011123996704001,-0.0236721905168818,-0.159662668741925,0.000233975239315978,0.0318104597104811,0.20069989115065,0.000228888821069979,-0.133101392661316,-0.076453952655619,0.000152592547379986,0.00602740562150945,0.748466444898831
7.44,4,-0.0466882330800297,0.0178685872981964,-0.00473036896877956,-0.0691142511266416,0.0272275968708355,0.00232957955666779,-0.0122379222998749,-0.156814274524166,-0.00208543148085981,0.0273038931445255,0.121951963866085,0.00855535548977121,-0.121936704611347,-0.0750043234555091,-0.010920539974161,0.00249234494053977,0.736177658416496
7.47,4,-0.0399436424858343,0.00817387412132125,-0.0117852310759809,-0.0625883765170242,0.021490117089348,0.00396231981363364,-0.0199082410148422,-0.157689138462477,-0.00153609831029186,0.0202846359650461,0.0792514826909187,0.00555945514287749,-0.115461694184189,-0.0752993357137771,-0.00774152857041129,0.00342315947955769,0.730852178512935
7.5,4,-0.032959990234077,0.011205379395937,-0.00643940549943541,-0.0590126244900866,0.00970997243161311,0.0043539740185756,-0.0251370789717297,-0.159560940377005,-0.00127160456149988,0.0187485376547543,0.0384584083580025,0.00684631895911537,-0.111448510188096,-0.0782698039694408,-0.00688701030508337,0.0065055289366334,0.733029165522223
7.53,4,-0.0268155969929095,0.0123193049918109,-0.00807214575640126,-0.0580563778598387,0.000788394828129927,0.00615965249590543,-0.0187688833277383,-0.157221187983846,-0.00157678965625985,0.0160171310566525,0.0370545569221066,-0.00515762810144353,-0.109322387361268,-0.0822321237830744,-0.00908942940560117,0.0100761945453251,0.739524521622364
7.56,4,-0.02134769737846,0.010605182042909,-0.00832138025045523,-0.0553453169347209,0.010432243822545,0.00752789900407931,-0.0197861669769382,-0.157831558173365,-0.00269580167037975,0.00858587399924721,0.0153915016123946,-0.00527970213934751,-0.10773033845027,-0.0861283201595101,-0.00788394828129927,0.00704468927070935,0.740358694214708
7.59,4,-0.0177210811690624,0.00640380057171341,-0.00456251716666158,-0.0534073915829951,0.00525427004811752,0.00684123254086937,-0.0190740684224982,-0.159764397106845,-0.000356049277219967,0.0043590604368216,-0.00356049277219967,-0.00426750490839361,-0.107328511408836,-0.0894039735099338,-0.00389619637643564,0.00678528194016338,0.73996195359152
7.62,4,-0.0149184647155166,0.00452182582069358,-0.00489822077089755,-0.0534073915829951,0.000152592547379986,0.00776187424339529,-0.0209051789910581,-0.159357483647165,0.000661234371979939,0.0142979216895047,-0.000172938220363984,0.00352488784447768,-0.107872758161158,-0.0927254046245715,-0.00396740623187963,0.00930814539017914,0.739412620420952
7.65,4,-0.0124057741019929,0.00587989949237546,-0.00065106153548794,-0.0534073915829951,0.000152592547379986,0.0086825159459212,-0.0267036957914975,-0.158157088941109,-0.000559506007059949,0.0269885352132735,0.0114647867264829,0.0054272082684815,-0.109093498540198,-0.0964893541266111,-0.00303659169286172,0.00930814539017914,0.736559139784946
7.68,4,-0.010528885769219,0.0032349620044557,-0.00397757906837163,-0.0534531693472091,0.000152592547379986,0.00914538000630716,-0.0222886847539699,-0.157790866827397,-0.00243130792158778,0.0314442375967691,0.0313221635588651,0.00398266548661763,-0.109642831710766,-0.0988952299569689,-0.00282804854477574,0.00930814539017914,0.731803338724937
7.71,4,-0.00784325693533128,0.00692770165105136,-0.00150049338256986,-0.0529394411043631,0.00423698639891761,0.00935900957263914,-0.0277820164596494,-0.159357483647165,-0.00251269061352377,0.0288094729453413,0.0553351440982289,0.0097760958688111,-0.108386486404004,-0.100309254229357,-0.00389110995818964,0.00879441714733319,0.733619190038759
7.74,4,-0.00295520900092573,0.0129754529455448,-0.00742617063915932,-0.0511185033722953,0.00390128279468164,0.00474054180527156,-0.0199285866878262,-0.158686076438693,-0.00418103579821162,0.0162816248054445,0.0770287179174169,0.0021261228268278,-0.104714092430392,-0.101529994608397,-0.00842819503362122,0.00674459059419538,0.732749412518693
7.77,4,0.00119022186956389,0.0124006876837469,-0.00853500981678721,-0.0487024547054455,0.010666219061861,0.00503046764529354,-0.0166732790103865,-0.159194718263293,-0.0043031098361156,0.00143436994537187,0.0676188441623178,0.00352488784447768,-0.100385550503047,-0.101428266243477,-0.00915046642455316,0.00601723278501745,0.728939685252439
7.8,4,0.00575273903622547,0.0125380209763888,-0.00839259010589923,-0.0446129744356619,0.0141911069063387,0.00292469049144973,-0.0192571794793542,-0.159174372590309,-0.00275683868933175,-0.00843328145186722,0.065477462080752,0.000498468988107954,-0.0965147862178411,-0.102206488235115,-0.00829086174097924,0.00282804854477574,0.712927640614032
7.83,4,0.0126855271055228,0.0207169815159561,-0.0119276507868689,-0.0401064078697063,0.0149184647155166,0.00157170323801386,-0.0237128818628498,-0.160089927874589,-0.00190232042400382,-0.00709555345316935,0.0780765200760928,-0.0011240984323659,-0.0922828862371695,-0.10485651214128,-0.0143843907996867,0.00171920936714784,0.704204433322143
7.86,4,0.021968240404472,0.0298674479405093,-0.0180160934273303,-0.0356252733949807,0.0154372793766086,0.00175990071311584,-0.0196234015930662,-0.159784742779829,-0.00249234494053977,0.0010630614134139,0.105919573554694,-0.00187688833277383,-0.086672566911832,-0.108579770297352,-0.0210272530289621,0.00131229590746788,0.710313221635589
7.89,4,0.0299488306324452,0.0253354492833237,-0.0209763888465021,-0.0302641885636972,0.0188197475101983,0.000183111056855983,-0.010711996826075,-0.158848841822565,-0.00230923388368379,0.00152592547379986,0.097354045228431,0.00339772738832769,-0.0804162724692526,-0.110288806828008,-0.0190995005137282,-0.000310271513005971,0.708629617196163
7.92,4,0.0376394950203965,0.0253201900285857,-0.0178685872981964,-0.0252947579373557,0.0161748100222785,-0.00102745648569191,-0.0204575741854101,-0.161025828831853,-0.00357066560869167,-0.00168869085767184,0.0945361695201473,0.00116478977833389,-0.0749432864365571,-0.112526830856248,-0.0183212785220903,-0.000971505884985911,0.705323445336263
7.95,4,0.0501571703238014,0.0414492222866502,-0.0237993509730318,-0.0203914507482121,0.0182653279213843,-0.000829086174097924,-0.021596931872514,-0.161046174504837,-0.00487278867966755,-0.00904873805963317,0.146458326975311,-0.00287891272723574,-0.0677205725272378,-0.117811619413841,-0.0284432508316294,-0.00234992522965178,0.703070162053285
7.98,4,0.0640990427360861,0.0467187515895057,-0.0348317921486048,-0.0132755516220588,0.0248471531317077,-0.0032146163314717,-0.00418103579821162,-0.157424644713686,-0.00466933194982757,-0.0151168350271106,0.153787855667796,-0.00528478855759351,-0.0582903530991546,-0.122282581052075,-0.0354370759198787,-0.00585955381939146,0.701671397035635
8.01,4,0.0754570146794031,0.0382091738639485,-0.0300454725791192,-0.00426241849014761,0.032502212591937,-0.00498468988107954,-0.0124006876837469,-0.161107211523789,-0.00121056754254789,-0.0135502182073428,0.153848892686748,0.00097659230323191,-0.0493738619139175,-0.124749493901385,-0.0282906582842494,-0.00971505884985911,0.703929766736859
8.04,4,0.0913724173711356,0.0529547003591011,-0.0336263110243029,0.00458794925789158,0.0296538183741773,-0.00822473830378124,-0.0203558458204901,-0.161880347097181,-0.00161748100222785,-0.0054577267779575,0.193899349955748,-0.00447096163823359,-0.0389975686920784,-0.130268257698294,-0.0375326802372305,-0.011190120141199,0.713166702271594
8.07,4,0.108737449262978,0.0576647236548967,-0.043046357615894,0.0138096255378887,0.032700582903531,-0.00992868841619108,0.000356049277219967,-0.159092989898373,-0.00188197475101983,-0.00563066499832148,0.199494410026348,-0.00319935707673371,-0.0269274981943215,-0.135573391928872,-0.043137913144322,-0.0129195023448388,0.71584215826899
8.1,4,0.126651814325388,0.0589566738893806,-0.04366181422366,0.0258237454349396,0.0422020121870581,-0.0141198970508947,0.000600197353027945,-0.159967853836685,-0.00383515935748365,-0.00120039470605589,0.211640776797795,-0.0054322946867275,-0.0144199957274087,-0.140980254524369,-0.043590604368216,-0.0190842412589902,0.718980478326772
8.13,4,0.147846919156468,0.0696432386242256,-0.0505640837834813,0.0376344086021505,0.0383007293923765,-0.0175023651844844,-0.00692770165105136,-0.163528346608885,-0.00241096224860378,-0.00953703421124912,0.218380280973744,-0.0162511062959685,-0.00156153040152186,-0.149301634774824,-0.0514440341400393,-0.0202998952197841,0.723405662200791
8.16,4,0.16953540655741,0.0720694601275674,-0.053768527278461,0.0489211706900235,0.0398724326303903,-0.0196844386120182,0.00493382569861955,-0.158136743268125,0.00198370311593982,-0.00500503555406354,0.203736482843511,-0.0203100680562761,0.010976490574867,-0.158304595070243,-0.054333119703767,-0.021795302184108,0.728970203761915
8.19,4,0.189479252499975,0.0668813135166478,-0.0505691702017273,0.0627358826461582,0.0483870967741935,-0.0235755485702078,-0.00350962858973968,-0.160273038931445,0.00239061657561978,0.021739351583402,0.199143447167374,-0.00746686198512731,0.0228278450880459,-0.166437777845597,-0.0504674418368074,-0.0281940163375754,0.739417706839198
8.22,4,0.210654011658071,0.0715760775577054,-0.0527665028839992,0.0745007680491551,0.0366578162989186,-0.0264697205521816,-0.00310271513005971,-0.162612791324605,-0.000152592547379986,0.0416679382712282,0.215374207790358,-0.00847397279783522,0.0351217179886268,-0.175288145593636,-0.0530157373780531,-0.0267596463922035,0.742118594927824
8.25,4,0.233308918525753,0.0770083722444329,-0.0582089704072186,0.0852890611489202,0.0378531245867285,-0.0269020661030915,0.0064800968454034,-0.158116397595141,-0.000518814661091952,0.0457726777957498,0.235475732698548,-0.0102643920204271,0.0487634917243975,-0.184311451562039,-0.0580970692058067,-0.0278939176610614,0.739448225348674
8.28,4,0.25678273873104,0.0800144454278186,-0.0599943032115645,0.0990936002685629,0.0507421084220913,-0.0305795464949492,0.0141300698873867,-0.158238471633045,-0.00253303628650777,0.0482243313903216,0.26629434085106,-0.0097455773593351,0.0639617094434441,-0.19258705404828,-0.0603706981617684,-0.0346283354187648,0.738125756604714
8.31,4,0.280480361339152,0.0803755811232846,-0.0606911425112664,0.114627521591845,0.0513575650298573,-0.0358948535620187,0.00355031993570767,-0.159011607206437,-0.00391654204941964,0.0562812178919848,0.273272906684571,-0.00961841690318512,0.0800602231920326,-0.200170903653066,-0.0605436363821324,-0.0389365316731264,0.73591825108595
8.34,4,0.304839218319244,0.0824457533494064,-0.0625120802433343,0.12732322153386,0.0405743583483383,-0.0374106061993266,0.0132552059490748,-0.159296446628213,-0.00316375214901171,0.0291909543137913,0.280205694753868,-0.0311288796655171,0.0968657490768151,-0.207739494003113,-0.0625578580075482,-0.0372987049979146,0.732871486556597
8.37,4,0.33076977853735,0.08737449262978,-0.0660878322702719,0.141738130843023,0.0513524786116113,-0.0399131239763583,0.0125227617216508,-0.161961729789117,-0.00554419588813949,0.0341909034496089,0.298572751040173,-0.0188044882554603,0.114179916786197,-0.216355886511836,-0.0660318816695659,-0.0425224565365561,0.735063732820622
8.4,4,0.357437869401125,0.0904975534328237,-0.0688497573778497,0.157399212622456,0.0510116885891293,-0.0442569251584419,0.0193792535172582,-0.165237383139541,-0.00452691223893958,0.0298572751040173,0.301507614368114,-0.0181686859747103,0.13230791141494,-0.224875637073885,-0.0691702017273476,-0.0467441836807357,0.732652770572019
8.43,4,0.383434553056429,0.0901974547563097,-0.0684174118269397,0.171015554266996,0.0448418632567319,-0.0464644306772057,0.0197861669769382,-0.164993235063733,-0.00440483820103559,0.0241554002502518,0.319579658396151,-0.0300047812331512,0.150690226955982,-0.232525610115869,-0.0684428439181697,-0.0463270973845637,0.734005757825454
8.46,4,0.411699779249448,0.0967792799666331,-0.0731274351227353,0.185674611651967,0.0513779107028413,-0.0503453677989034,0.0316273486536251,-0.153742077903582,-0.00737530645669932,0.0344960885443688,0.35313475956501,-0.0340790022481969,0.170990122175766,-0.240455336161382,-0.0732698548336233,-0.0510371206803593,0.730750450148015
8.49,4,0.440626239814447,0.0992614520706809,-0.075807977538377,0.203624581642099,0.0628579566840622,-0.0578834396394747,0.0255236467584257,-0.154657633187862,-0.00556454156112349,0.0520645771660512,0.365367595446638,-0.0280210781172114,0.192785424359874,-0.247622099469995,-0.076367483545437,-0.0584124271370586,0.724992624693543
8.52,4,0.468220058798995,0.0942411572618793,-0.0731884721416873,0.22270882290109,0.0672678813033438,-0.0632699565619882,0.0408032471694082,-0.159784742779829,-0.00391654204941964,0.0380565813165685,0.367722607094536,-0.0203761914934741,0.214540035198014,-0.253456221198157,-0.0728782006286813,-0.0628732159388002,0.719239885657318
8.55,4,0.49712617369101,0.0988189336832789,-0.0754163233334351,0.243634347565132,0.0703807692698955,-0.0680206712037517,0.0361847794020407,-0.157811212500381,-0.00391654204941964,0.0464796899319437,0.397808771019623,-0.0265816217535936,0.237718843145034,-0.259158096051922,-0.075635039318013,-0.0689921770887376,0.710420036418755
8.58,4,0.527583646148055,0.104403820917386,-0.0792921740368867,0.26428520564389,0.0686819055757317,-0.0719524725079094,0.0446689250363679,-0.153803114922534,-0.00894192327646718,0.0405540126753543,0.422691529079053,-0.0204931791131321,0.262240465508998,-0.265154983163956,-0.0797906430249947,-0.0719372132531714,0.701417076123335
8.61,4,0.557913958148951,0.103981648202968,-0.0807723217464726,0.28494623655914,0.0705537074902595,-0.0748720765811131,0.0477818130029196,-0.157302570675782,-0.00686666463209937,0.0332855210018209,0.440885647144993,-0.0178584144617044,0.288165939308857,-0.269524216437269,-0.0805434329254026,-0.075991088595233,0.687047944578387
8.64,4,0.59121473840551,0.114179916786197,-0.0860978016500341,0.305419069999288,0.0677765231279438,-0.0784630878627888,0.0417391481266722,-0.158055360576189,-0.00300098676513972,0.0223904131188899,0.476790673543504,-0.0459354431796218,0.315830968148849,-0.275154881435591,-0.0863266904711041,-0.0789920753603727,0.665359457177445
8.67,4,0.625817641733044,0.117552212083295,-0.0912605161697236,0.323933632414726,0.0600502538122705,-0.0795312356944487,0.0556962797936949,-0.151992350026958,-0.00711081270790735,0.0262459181493576,0.484608498387605,-0.0379192480239265,0.344935453352458,-0.280643126723024,-0.0916114790286976,-0.0796787418235827,0.639281390830205
8.7,4,0.658391064180425,0.110619424013998,-0.086621702729372,0.343323058768476,0.0678019552191738,-0.0861893571784621,0.0705689667449975,-0.146112450534583,-0.0137231564277067,0.0243842890713218,0.468057293415123,-0.0163375754061505,0.373241370891446,-0.284915718049664,-0.0858282214829961,-0.0851415550197862,0.622826827804397
8.73,4,0.693741670990122,0.120995717235837,-0.0918352814315215,0.36667480493586,0.0808943957843766,-0.0933052563046154,0.0604164759259824,-0.143630278430535,-0.0120344655700349,0.0256152022868536,0.495656198817916,-0.00806705933815526,0.402106794437493,-0.291365296385591,-0.0927406638793095,-0.0943683177180293,0.595187231055635
8.76,4,0.727413759778639,0.117933693451745,-0.0927966144800155,0.390128279468164,0.0793582974740847,-0.0971251564073611,0.0731528672139653,-0.145217240923287,-0.00560523290709148,0.021612191127252,0.504292936999624,-0.0253710542110457,0.432335378073468,-0.294885097811823,-0.0925473799859615,-0.098391674550615,0.562257759331034
8.79,4,0.76113162633137,0.116316212449517,-0.0915199235002696,0.411872717469812,0.0715760775577054,-0.0993835261085849,0.0732952869248533,-0.149082918790246,-0.0140893785414187,0.0293384604429253,0.522995696890164,-0.0202490310373241,0.462975961587369,-0.297911516668193,-0.0908230842005676,-0.0997802667317728,0.529129917294839
8.82,4,0.798287911618397,0.127979369487594,-0.097354045228431,0.4325490076398,0.0687378561764377,-0.101692759992269,0.075838496047853,-0.133518478957488,-0.00829086174097924,0.0204423149306721,0.542095197403892,-0.0288094729453413,0.495127211320332,-0.302891120131026,-0.0989664398124129,-0.102643920204271,0.499476098920662
8.85,4,0.833221432131921,0.120426038392285,-0.0959196752830592,0.452996408988718,0.0693431399477116,-0.105599129205196,0.0898770104068117,-0.146234524572487,-0.00513728242845953,0.00918607135227515,0.535579495630767,-0.043605863622954,0.527283547471541,-0.305688650166326,-0.0945972065390993,-0.105660166224148,0.480412203334656
8.88,4,0.872926012960194,0.137399416079185,-0.10511083305358,0.473570970793786,0.0660471409243039,-0.107277647226376,0.0792769147821487,-0.141860204880927,-0.0120751569160029,0.00505589973652353,0.611804559465316,-0.0408083335876542,0.561733858251696,-0.310942920214443,-0.105243079927976,-0.109424115726188,0.435046438998586
8.91,4,0.91623686432488,0.148360647399314,-0.115273496709087,0.490686768191575,0.0556657612842189,-0.108793399863684,0.098320464695171,-0.138645588549455,-0.00629698578854742,-0.00373851741080966,0.646178573971781,-0.0797448652607807,0.599658192693869,-0.316349782809941,-0.114800459812209,-0.108157597582934,0.406582842493973
8.94,4,0.962965788750877,0.160405285805841,-0.122348704489273,0.508519750562049,0.0591957355469426,-0.10984120202236,0.100599180069379,-0.142816451511175,-0.010895107882931,-0.00525427004811752,0.69352804142379,-0.102074241360719,0.639927365947447,-0.322773929054638,-0.122984506770023,-0.11322367015595,0.394110944954782
8.97,4,1.01396221808527,0.17507960244555,-0.135603910438348,0.516561377808974,0.0141809340698467,-0.100212612282683,0.11012095502589,-0.192907498397778,-0.00196335744295582,0.00671915850296538,0.764453057446008,-0.0972268847722811,0.683339945677053,-0.330367951495916,-0.134891811883908,-0.100426241849015,0.382386750897753
9,4,1.07504501480148,0.208273567918943,-0.15556301563565,0.516775007375306,0.000167851802117985,-0.0921557257810195,0.103203426211331,-0.138828699606311,-0.00344859157078768,-0.0343231503240048,0.87420270393994,-0.0814132104454685,0.733049511195207,-0.341756441948709,-0.157851903846349,-0.0930967131565294,0.362397127190975
9.03,4,1.13399151585437,0.200989816990672,-0.159087903480127,0.51694794559567,0.000152592547379986,-0.0931831822667114,0.100151575263731,-0.0831222469761244,-0.0132552059490748,0.0397198400830103,0.840759503972493,-0.116061891537217,0.784986927905108,-0.348765526291696,-0.158116397595141,-0.0930814539017914,0.309584846542762
9.06,4,1.19108147424746,0.195694855596586,-0.151183609525844,0.517014069032868,0.000152592547379986,-0.0923591825108595,0.136244799137343,-0.149672943306782,-0.00881984923856319,0.164652445041251,0.857193721325317,-0.0341858170313629,0.835612048707541,-0.355245623137099,-0.152343312885932,-0.0930814539017914,0.256533504236986
9.09,4,1.2435427920367,0.179280983916745,-0.143436994537187,0.51560004476048,-0.00716676330861334,-0.0919268369599495,0.119215470849737,-0.0281278929003774,-0.0244860174362417,0.185343994465977,0.784066286202582,-0.0205338704591001,0.885514898119043,-0.357763400168869,-0.143935463525295,-0.0905331583605457,0.164031902015239
9.12,4,1.28841008738467,0.142567217017121,-0.0696279793694876,0.514918464715517,0.00239570299386578,-0.065528326263212,0.176773379721468,-0.0841598762983083,-0.0285551520330414,0.272001302123071,0.577817112745547,0.0610827967162084,0.928846095156713,-0.359345276243375,-0.0574002299061047,-0.0483718375194555,0.097867773471277
9.15,4,1.35107476017538,0.211650949634287,-0.0171208838160344,0.516032390311391,0.00250760419527777,-0.0224107587918739,0.0955737988423312,-0.142267118340607,-0.0397249265012563,0.401023387351095,0.434059673858862,0.238883632923368,0.961511073132522,-0.389304279712312,-0.0298064109215573,-0.0180873032827743,0.0354523351746167
9.18,4,1.38926358836634,0.141315958128605,-0.0315103610339671,0.509694713176875,-0.0239112521744438,-0.0155034028138066,-0.0116478977833389,-0.0507115899126153,-0.00930814539017914,0.438810388500626,-0.119195125176753,0.359965819269387,0.971587267677847,-0.417401654103214,-0.0306558427686392,-0.00577817112745547,0.0087028616189052
9.21,4,1.38370921964171,0.00135298725343588,-0.00794498530025127,0.50391654204942,-0.0123447370830409,-0.00299590034689372,0.011037527593819,-0.0932340464491714,0.0198878953418582,0.327951902829066,-0.73566393017365,0.230175684886217,0.943347473576057,-0.440097252316863,-0.000615456607765943,-0.00627155369731742,0.00310780154830571
9.24,4,1.35234636473688,-0.0863470361440881,-0.00397249265012563,0.502502517777032,-0.00193283893347982,-0.0384533219397565,0.158970915860469,-0.212622455519272,0.0124820703756829,0.156483657338176,-0.769712413912371,0.102216661071607,0.896893215735343,-0.455178482416252,-0.0409507532985422,-0.124754580319631,0.00194301176997182
9.27,4,1.27382223985514,-0.252840764590391,-0.0820897040721865,0.438189845474614,-0.326848150069684,-0.127877641122674,-0.131178726564328,-0.0709148431857255,-0.00556454156112349,0.00668355357524339,-1.36390270699179,0.011042614012065,0.834864345225379,-0.438723919390444,-0.0854874314605141,-0.15167190567746,0.00167851802117985
9.3,4,1.15646839808344,-0.396043783888262,-0.04345835749382,0.287148655659658,-0.534613076164027,-0.0166631061738945,-0.201350952686137,-0.076041952777693,-0.00473036896877956,0.0813928647724845,-2.29337443159276,-0.0878170110171819,0.72133548997467,-0.43491419212419,-0.0391094698934904,0.0249437950783817,0.00167851802117985
9.33,4,1.03212581764173,-0.422142195908485,-0.0245470544551937,0.137379070406201,-0.503285826186916,-0.00369273964659566,0.0138452304656107,-0.233578498692791,-0.0387483341980244,-0.0710521764783675,-2.46972563859981,-0.100558488723411,0.576296273689993,-0.455580309457686,-0.021713919492172,0.0996683655303608,0.00167851802117985
9.36,4,0.888770205796482,-0.476683858760338,-0.00184128340505183,0.0135909095533107,-0.378826258125553,0.0717541021963154,0.0497349976093834,-0.214718059836624,-0.0164698222805465,0.00826034323150324,-2.45051932330292,0.157297484257536,0.428454440951771,-0.46007670318715,0.00383007293923765,0.134657836644592,0.00167851802117985
9.39,4,0.752957752210049,-0.454451124607074,0.0151473535365866,-0.0254015727205217,-0.0630664998321482,0.0532395397808771,0.0878017517624439,-0.254046245714693,-0.0117292804752749,-0.0694957324950916,-2.34643086031678,-0.0144810327463607,0.283440656758324,-0.469288206630655,0.0152948596657206,0.0493840347504095,0.00167851802117985
9.42,4,0.627709789320556,-0.417299925738294,0.0182042909024323,-0.0159916989654225,0.0403505559455143,0.00355031993570767,0.0717897071240374,-0.218482009338664,-0.0155135756502986,-0.11220638650675,-2.05964842677084,-0.296075319681387,0.1531469669688,-0.474323760694194,0.0203151544745221,-0.00535091199479151,0.00167851802117985
9.45,4,0.515533921323283,-0.375932086143579,0.0223853267006439,-0.0136265144810327,0.00196844386120182,0.00376903592028565,0.109998880987986,-0.236040325123854,-0.021393475142674,-0.0640583513901181,-1.82138533687348,-0.354543697419151,0.0354981129388307,-0.479842524491104,0.0235297708059938,0.00589515874711346,0.00167851802117985
9.48,4,0.417895036673076,-0.327173680837428,0.0239163385926898,-0.0140385143589587,0.000152592547379986,0.00634276355276142,0.116651916053753,-0.235084078493606,-0.0282296212652974,-0.122842087059135,-1.62287769198686,-0.37471134576454,-0.0680918810591957,-0.485910621458581,0.0241299681590218,0.00749229407635731,0.00167851802117985
9.51,4,0.332092247281309,-0.289127272357351,0.0235704621519618,-0.0143640451267027,0.000152592547379986,0.00674967701244138,0.117689545375937,-0.220781070385856,-0.0295520900092573,-0.0563626005839208,-1.31483911659088,-0.327723014007996,-0.154377880184332,-0.486414176864935,0.0247962889492477,0.00793481246375927,0.00167851802117985
9.54,4,0.259005503504542,-0.248023926511429,0.0241910051779738,-0.0146488845484787,0.000152592547379986,0.00738547929319132,0.121107618437249,-0.216895046845912,-0.0231228573463139,-0.105578783532212,-0.984221930600909,-0.218578651285338,-0.223344625181839,-0.48223822748497,0.0244860174362417,0.00793481246375927,0.00167851802117985
9.57,4,0.20024211350851,-0.200969471317688,0.0211391542303741,-0.0148676005330566,0.000152592547379986,0.00779239275287128,0.0963672800887071,-0.190689820042522,-0.0205389568773461,-0.0169886369416384,-0.63019704784285,-0.104464857936338,-0.270261747082939,-0.470437737154251,0.0208746604815821,0.00793481246375927,0.00167851802117985
9.6,4,0.158330027161473,-0.145476648253833,0.0162765383871985,-0.0150710572628966,0.000152592547379986,0.00780256558936328,0.0778323720002848,-0.175593330688396,-0.0148421684418266,0.0199184138513342,-0.342438021993672,-0.101474044007691,-0.29930010884935,-0.457564012573626,0.0143793043814407,0.00819421979430525,0.00167851802117985
9.63,4,0.12940865301472,-0.101351969969787,0.00985239214250109,-0.0152338226467686,0.000152592547379986,0.00797550380972727,0.0499384543392234,-0.158584348073773,-0.0128279468164108,0.000808740501113926,-0.106880906603188,-0.0801212602109846,-0.311995808791365,-0.441302733441165,0.00800093590095726,0.00839259010589923,0.00167851802117985
9.66,4,0.109169794813888,-0.0707063000376395,0.00508133182775353,-0.0153660695211646,0.000152592547379986,0.00824508397676524,0.0333974222032329,-0.151585436567278,-0.0137028107547227,-0.0177465132602924,0.0724153365682953,-0.0316171758171331,-0.312555314798425,-0.421638640502131,0.00379446801151565,0.00839259010589923,0.00167851802117985
9.69,4,0.0968759219133071,-0.044033122755618,0.000188197475101983,-0.0154881435590686,0.000152592547379986,0.00837224443291523,0.0128482924893948,-0.144566179387799,-0.0150863165176346,-0.0496180099897254,0.248298593096713,0.0481327758618936,-0.302067120375174,-0.398861659596545,-6.61234371979939e-05,0.00839259010589923,0.00167851802117985
9.72,4,0.0924354787845495,-0.0176396984771264,-0.00297046825566373,-0.0155644398327586,0.000152592547379986,0.00833663950519323,0.00053916033407595,-0.145115512558367,-0.0172226121809544,-0.0704367198706015,0.364909817804498,0.114627521591845,-0.283430483921832,-0.375794752850937,-0.00465915911333557,0.00839259010589923,0.00167851802117985
9.75,4,0.0932086143579414,-0.00155135756502986,-0.00635293638925342,-0.0156916002889086,0.000152592547379986,0.00840784936063723,-0.0131331319111708,-0.142348501032543,-0.0226142155217139,-0.0742261014638712,0.476699118015076,0.143350525427005,-0.240780866929126,-0.333908098595131,-0.00842310861537523,0.00839259010589923,0.00167851802117985
9.78,4,0.0961790826136052,0.000630715862503942,-0.00884528132979319,-0.0157170323801386,0.000152592547379986,0.00837733085116123,-0.0373851741080966,-0.134332305876848,-0.0234483881140578,-0.0645466475417341,0.528097374390901,0.102582883185319,-0.195425275429548,-0.291517888932971,-0.00918607135227515,0.00839259010589923,0.00167851802117985
9.81,4,0.102765994242175,0.00774661498865729,-0.0101779229102451,-0.0157170323801386,0.000152592547379986,0.00832646666870123,-0.0664794864752139,-0.123345642465489,-0.0230414746543779,-0.0424207281716361,0.317234819584745,-0.0115512558366649,-0.175883256528418,-0.278547522405672,-0.0115512558366649,0.00839259010589923,0.00167851802117985
9.84,4,0.104897203487248,-0.00408948026978362,-0.010986663411359,-0.0158340199997965,0.000152592547379986,0.00832646666870123,-0.043488876003296,-0.143589587084567,-0.0230414746543779,-0.0291350037130853,0.298745689260537,-0.0737123732210252,-0.169148838770714,-0.273944313893043,-0.00939461450036114,0.00839259010589923,0.00150049338256986
9.87,4,0.108869696137374,0.00458286283964558,-0.00999989827163508,-0.0157628101443525,0.000152592547379986,0.00842310861537523,-0.0518509475997192,-0.14940844955799,-0.0207017222612181,-0.0208339691356141,0.246314889980773,-0.125827814569536,-0.166412345754367,-0.275236264127527,-0.011398663289285,0.00839259010589923,0.00157170323801386
9.9,4,0.111102633747368,0.000523901079337952,-0.011205379395937,-0.0155796990874966,0.000152592547379986,0.00845871354309722,-0.0474562822351756,-0.162266914883877,-0.02198349965921,-0.0126092308318328,0.186274809004995,-0.170720542008728,-0.164642272204759,-0.275653350423699,-0.010986663411359,0.00839259010589923,0.00169886369416384
9.93,4,0.112923571479436,0.000152592547379986,-0.011001922666097,-0.0154372793766086,0.000152592547379986,0.00834681234168523,-0.0421664072593361,-0.165501876888333,-0.021657968891466,0.000172938220363984,0.170089826146224,-0.17624947864213,-0.154047262998342,-0.266884365367595,-0.010986663411359,0.00839259010589923,0.00167851802117985
9.96,4,0.114418978443759,0.000152592547379986,-0.010961231320129,-0.0153864151941486,0.000152592547379986,0.00848414563432722,-0.0415356913968322,-0.162653482670573,-0.0196844386120182,0.00821965188553524,0.15446943571276,-0.183238217312133,-0.146239610990733,-0.260582293160802,-0.010986663411359,0.00839259010589923,0.00167851802117985
9.99,4,0.115400657165237,-0.000340790022481969,-0.011210465814183,-0.0152592547379986,0.000152592547379986,0.00831629383220923,-0.0832036296680603,-0.157404299040702,-0.00898261462243517,0.00627664011556342,0.101265500859605,-0.191457869197668,-0.145995462914925,-0.261355428734194,-0.011307107760857,0.00839259010589923,0.00167851802117985
10.02,4,0.1138594724367,-0.00744142989389732,-0.0102949105299031,-0.0151117486088646,0.000152592547379986,0.00834172592343923,-0.0805180008341726,-0.161595507675405,-0.0117292804752749,0.0198472039958902,-0.0190486363312682,-0.225170649332153,-0.145730969166133,-0.259509058910896,-0.00958281197546312,0.00839259010589923,0.00179041922259184
10.05,4,0.113991719311096,-0.000457777642139958,-0.0102796512751651,-0.0151066621906186,0.000152592547379986,0.00844345428835922,-0.0167139703563545,-0.1772413302001,-0.0145573290200507,0.022232734153264,0.0736920275480412,-0.109800510676392,-0.144021932635477,-0.25792718283639,-0.010879848628193,0.00839259010589923,0.00178024638609984
10.08,4,0.114418978443759,0.000152592547379986,-0.010991749829605,-0.0151066621906186,0.000152592547379986,0.00846888637958922,-0.0343129774875128,-0.173965676849676,-0.00713115838089134,0.0359101128167567,0.0598824020101525,-0.0258949552903836,-0.139149143955809,-0.253466394034649,-0.010986663411359,0.00839259010589923,0.00167851802117985
10.11,4,0.115080212815739,0.000152592547379986,-0.011022268339081,-0.0151015757723726,0.000152592547379986,0.00829594815922524,-0.0225328328297779,-0.161921038443149,-0.00145471561835587,0.00896226894945118,-0.0159764397106845,0.0452640359711498,-0.137221391440575,-0.252225307982625,-0.010986663411359,0.00839259010589923,0.00167851802117985
10.14,4,0.114683472192551,0.000152592547379986,-0.011103651031017,-0.0149540696432386,0.000152592547379986,0.00835698517817723,-0.04391613513596,-0.251380962553789,0.0169581184321624,-0.0706554358551795,-0.0689870906704916,0.0842259997355062,-0.135787021495203,-0.250373851741081,-0.010986663411359,0.00795007171849727,0.011103651031017
10.17,4,0.112592954293446,-0.00271614734336375,-0.010595009206417,-0.0192673523158462,-0.0192927844070762,0.00923693553473515,-0.098361156041139,-0.28080080568865,0.0177719453515224,-0.0768252611875769,0.269798883022553,-0.021657968891466,-0.128910184026612,-0.241426842046368,-0.0101423179825231,0.0157526373078605,0.242728965117344
10.2,4,0.129271319722078,0.0496230964079714,-0.0189469079663483,-0.0245114495274717,-0.0119022186956389,0.0141809340698467,0.032827743359681,-0.120131026134017,-0.0530920336517431,-0.132811466821294,0.178950366730756,-0.0251167332987457,-0.114825891903439,-0.243990396842352,-0.0305439415672272,0.0141707612333547,0.304813786228014
10.23,4,0.146036154260893,0.0478988006225776,-0.0469679860835597,-0.0248725852229377,0.00010681478316599,0.0101168858912931,-0.00414034445224362,-0.177688935005748,0.0184433525599943,-0.121265297402875,0.204875840530615,-0.102999969481491,-0.102064068524227,-0.247978148747215,-0.0407676422416863,0.00444552954700359,0.45170954517248
10.26,4,0.158889533168533,0.0381990010274565,-0.0269834487950275,-0.0231788079470199,0.00899278745892717,0.0043590604368216,-0.0223293760999379,-0.169062369660532,0.00721254107282734,-0.0629291665395062,0.151834671061332,-0.00360627053641367,-0.0928322194077375,-0.251660715557319,-0.0287789544358654,0.00177007354960784,0.547802158675904
10.29,4,0.168024740338349,0.0264392020427056,-0.0259407330545976,-0.0192164881333862,0.0130720948922188,-0.000717184972685934,-0.00129195023448388,-0.162083803827021,0.0032451348409477,-0.021337524541968,0.116417940814437,-0.0114088361257769,-0.0841853083895383,-0.252123579617705,-0.021642709636728,-0.000813826919359925,0.575355286314483
10.32,4,0.173304442477696,0.0155949583422346,-0.0157678965625985,-0.0141961933245847,0.0168970814132104,-0.00163274025696585,-0.011322367015595,-0.157750175481429,-0.00265511032441176,-0.00445570238349559,0.0860672831405581,0.0011037527593819,-0.0785393841364788,-0.251747184667501,-0.0134535762606688,-0.0032705669321777,0.591540269173254
10.35,4,0.174784590187282,0.00386059144871364,-0.00956246630247912,-0.0102237006744591,0.0129754529455448,-0.00153609831029186,-0.0128279468164108,-0.158686076438693,-0.00153609831029186,-0.00332651753288369,0.0970386872971791,-0.011225725068921,-0.0727103488265633,-0.247408469903663,-0.00480157882422356,-0.00178533280434584,0.597588020467747
10.38,4,0.176931058687094,0.00719728181808934,-0.00381990010274565,-0.00496434420809554,0.0211645863216041,-0.00309254229356772,-0.0154118472853786,-0.158543656727805,-0.00147506129133986,0.00125125888851588,0.142256945504115,-0.0140486871954507,-0.065329955951618,-0.242210150456252,-0.0054119490137435,-0.00564083783481348,0.593030589719331
10.41,4,0.179998168889431,0.0100965402183091,-0.00621051667836543,0.00445570238349559,0.0357422610146387,-0.00573239336324147,-0.0124617247026989,-0.159662668741925,-0.000152592547379986,0.00971505884985911,0.212729270302438,-0.0120904161707409,-0.0556454156112349,-0.2355367697175,-0.00726849167353333,-0.0125481938128808,0.597135329243853
10.44,4,0.186554562008525,0.0212052776675721,-0.010828984445733,0.0175684886216824,0.0467187515895057,-0.011073132521541,-0.0054424675232195,-0.159764397106845,-0.00249234494053977,0.0144708599098687,0.263451033051546,-0.00701417076123335,-0.0413118889940082,-0.227754549801121,-0.0150456251716666,-0.0188350067649363,0.621819716991689
10.47,4,0.199728385265664,0.0416170740887682,-0.0236976226081118,0.032603940956857,0.0531785027619251,-0.0179092786441644,-0.011342712688579,-0.164342173528245,-0.00208543148085981,0.0204626606036561,0.323582669555752,-0.00703451643421735,-0.0236111534979298,-0.223232723980427,-0.0294910529903053,-0.0237077954446038,0.658879360332041
10.5,4,0.216610207424136,0.054795983764153,-0.0386618650878424,0.0501266518143254,0.0604673401084424,-0.0246487828201137,0.00377412233853165,-0.160435804315317,-0.00473036896877956,0.0137435021006907,0.335189875993123,0.00010681478316599,-0.00361644337290567,-0.220094403922646,-0.0407625558234403,-0.0295622628457493,0.67594429354737
10.53,4,0.234158350372834,0.0574104027425967,-0.043259987182226,0.0694753868221076,0.0680155847855057,-0.0315866573076571,0.00129195023448388,-0.159235409609261,-0.00668355357524339,0.00383007293923765,0.346970020650858,-0.00892666402172918,0.0167139703563545,-0.217210404777164,-0.043402406893114,-0.0360372732729067,0.676010416984568
10.56,4,0.254122541988383,0.0657368694112979,-0.0479852697327596,0.0888342946663818,0.065345215206356,-0.0364645324055706,0.00556454156112349,-0.159133681244341,-0.00340790022481969,-0.00291451765495773,0.367219051688182,-0.010884935046439,0.0382040874457025,-0.215659047212134,-0.0493789483321635,-0.0392010254219184,0.676066367585274
