time,Mode,Knee_Angle,Knee_Velocity,Knee_Current,Ankle_Angle,Ankle_Velocity,Ankle_Current,Acc_X,Acc_Y,Acc_Z,Gyro_X,Gyro_Z,Gyro_Y,Shank_Angle,Thigh_Angle,Knee_Ref_Torque,Ankle_Ref_Torque,Filtered_Vertical_Load
0,1,0.0228888821069979,0.000152592547379986,-0.0135909095533107,0.0141605883968627,0.000152592547379986,-0.0118513545131789,-0.0043234555090996,-0.159805088452813,-0.00444552954700359,-0.0087588122196112,0.00244148075807978,0.000417086296171962,-0.0259407330545976,-0.0487278867966755,-0.0134281441694388,-0.0120548112430189,0.476170130517492
0.03,1,0.0236213263344218,0.0032959990234077,-0.0136010823898027,0.0143335266172267,0.000152592547379986,-0.0118920458591469,-0.00411999877925962,-0.159886471144749,-0.00375377666554765,-0.0054119490137435,-0.000284839421775974,0.000203456729839981,-0.0257474491612496,-0.0492975656402275,-0.0145471561835587,-0.0120548112430189,0.481571906694744
0.06,1,0.0250251777703177,0.0054831588691875,-0.0180567847732983,0.0144861191646067,0.000152592547379986,-0.0120548112430189,-0.00387585070345164,-0.159601631722973,-0.00501520839055554,-0.00357066560869167,-0.00621560309661143,-0.00369273964659566,-0.0255541652679016,-0.0505183060192674,-0.0182704143396303,-0.0124820703756829,0.486994028544979
0.09,1,0.0246996470025737,0.000406913459679963,-0.0156865138706626,0.0146794030579546,0.000152592547379986,-0.0122684408093509,-0.00554419588813949,-0.160415458642333,-0.00468967762281157,-0.00193283893347982,-0.00626646727907142,-0.00152592547379986,-0.0261340169479456,-0.0507624540950753,-0.0148930326242866,-0.0125125888851588,0.488692892239143
0.12,1,0.0243842890713218,0.000152592547379986,-0.0145268105105747,0.0147709585863826,0.000152592547379986,-0.0123193049918109,-0.00530004781233151,-0.160293384604429,-0.00452691223893958,0.00186162907803583,-0.00596128218431145,-0.00157678965625985,-0.0270699179052095,-0.0513626514481033,-0.0144962920010987,-0.0125125888851588,0.487940102338735
0.15,1,0.0241401409955138,0.000152592547379986,-0.0144149093091627,0.0148014770958586,0.000152592547379986,-0.0124312061932229,-0.00509659108249153,-0.159886471144749,-0.00525935646636352,0.00271614734336375,-0.00393688772240364,-0.000600197353027945,-0.0276802880947295,-0.0517695649077832,-0.0144962920010987,-0.0125125888851588,0.489649138869391
0.18,1,0.0240180669576098,0.000152592547379986,-0.0142623167617827,0.0148014770958586,0.000152592547379986,-0.0124617247026989,-0.00517797377442752,-0.159560940377005,-0.00456760358490758,0.00392671488591164,-0.00228888821069979,-0.00101728364919991,-0.0279651275165054,-0.0518814661091952,-0.0140893785414187,-0.0125125888851588,0.488611509547207
0.21,1,0.0238756472467218,0.000152592547379986,-0.0139266131575467,0.0148319956053346,0.000152592547379986,-0.0124617247026989,-0.0054221218502355,-0.159886471144749,-0.00452691223893958,0.00428276416313161,0.00284839421775974,-0.00129195023448388,-0.0282804854477574,-0.0520747500025432,-0.0138859218115787,-0.0125125888851588,0.491927854243599
0.24,1,0.0237535732088178,0.000152592547379986,-0.0139571316670227,0.0148014770958586,0.000152592547379986,-0.0123193049918109,-0.00497451704458754,-0.159642323068941,-0.00456760358490758,0.00469985045930357,0.00238044373912778,-0.000905382447787917,-0.0281278929003774,-0.0517899105807672,-0.0138859218115787,-0.0125125888851588,0.489293089592171
0.27,1,0.0236518448438978,0.000152592547379986,-0.0137740206101667,0.0148014770958586,0.000152592547379986,-0.0124718975391909,-0.00558488723410749,-0.160252693258461,-0.00395723339538764,0.00490330718914355,0.000467950478631957,-0.00244148075807978,-0.0283313496302174,-0.0519628488011312,-0.0138859218115787,-0.0125125888851588,0.492212693665375
0.3,1,0.0238247830642618,0.000152592547379986,-0.0138350576291187,0.0148523412783186,0.000152592547379986,-0.0125329345581428,-0.00497451704458754,-0.160008545182653,-0.0043234555090996,0.00672424492121138,0.000569678843551948,-0.00142419710887987,-0.0283211767937254,-0.0520442314930672,-0.0138859218115787,-0.0125125888851588,0.490920743430891
0.33,1,0.0239570299386578,0.000152592547379986,-0.0138859218115787,0.0149133782972706,0.000152592547379986,-0.0125227617216508,-0.00440483820103559,-0.159927162490717,-0.00477106031474756,0.00728375092827133,-0.0010681478316599,-0.00149540696432386,-0.0279346090070294,-0.0517899105807672,-0.0138859218115787,-0.0125125888851588,0.493474125390383
0.36,1,0.0240485854670858,0.000152592547379986,-0.0139062674845627,0.0148319956053346,0.000152592547379986,-0.0125024160486668,-0.00517797377442752,-0.159967853836685,-0.0054221218502355,0.00743634347565132,-0.00207525864436781,-0.00154627114678386,-0.0279854731894894,-0.0519628488011312,-0.0140893785414187,-0.0125125888851588,0.491938027080091
0.39,1,0.0242316965239418,0.000152592547379986,-0.0142216254158147,0.0148726869513026,0.000152592547379986,-0.0125431073946348,-0.00493382569861955,-0.159560940377005,-0.00534073915829951,0.00784325693533128,-0.00288908556372773,-0.00170903653065584,-0.0282296212652974,-0.0524206264432712,-0.0144962920010987,-0.0125125888851588,0.490981780449843
0.42,1,0.0244656717632578,0.000152592547379986,-0.0144250821456547,0.0148014770958586,0.000152592547379986,-0.0124413790297149,-0.00513728242845953,-0.160578224026205,-0.0043234555090996,0.00789412111779127,-0.00384533219397565,0.00043743196915596,-0.0284025594856614,-0.0527868485569831,-0.0144962920010987,-0.0125125888851588,0.494603310240994
0.45,1,0.0246284371471297,0.000152592547379986,-0.0145268105105747,0.0147200944039226,0.000152592547379986,-0.0125736259041108,-0.00574765261797947,-0.159967853836685,-0.00534073915829951,0.0098269600512711,-0.00531022064882351,-0.000305185094759972,-0.0288501642913093,-0.0533972187465031,-0.0144962920010987,-0.0125125888851588,0.49422691529079
0.48,1,0.0247199926755577,0.000152592547379986,-0.0143843907996867,0.0146488845484787,0.000152592547379986,-0.0125024160486668,-0.00534073915829951,-0.160212001912493,-0.00521866512039552,0.00983713288776309,-0.00465915911333557,0.000823999755851924,-0.0294808801538133,-0.054150008646911,-0.0144962920010987,-0.0125125888851588,0.492558570106103
0.51,1,0.0248827580594297,0.000152592547379986,-0.0145878475295267,0.0146488845484787,0.000152592547379986,-0.0123599963377789,-0.00550350454217149,-0.160171310566525,-0.00595110934781945,0.011169774468215,-0.00360118411816767,0.00172938220363984,-0.0298165837580493,-0.054628131962035,-0.0146794030579546,-0.0125125888851588,0.494084495579903
0.54,1,0.0251065604622537,0.000152592547379986,-0.0148014770958586,0.0146488845484787,0.000152592547379986,-0.0126651814325388,-0.00505589973652353,-0.160618915372173,-0.00477106031474756,0.00890631834874518,-0.00177007354960784,0.00246691284930977,-0.0298674479405093,-0.0549231442203029,-0.0149540696432386,-0.0125125888851588,0.497589037751396
0.57,1,0.0253100171920937,0.000152592547379986,-0.0149540696432386,0.0146488845484787,0.000152592547379986,-0.0125024160486668,-0.00676493626717938,-0.160456149988301,-0.00517797377442752,0.010498367259743,-8.13826919359925e-05,0.000813826919359925,-0.0303862626016012,-0.0556047242652669,-0.0149540696432386,-0.0125125888851588,0.49824518570513
0.6,1,0.0254117455570137,0.000152592547379986,-0.0150354523351746,0.0146488845484787,0.000152592547379986,-0.0124820703756829,-0.00599180069378745,-0.160374767296365,-0.00525935646636352,0.00802636799218726,0.00210577715384381,0.00167851802117985,-0.0310271513005971,-0.0563473413291828,-0.0149540696432386,-0.0125125888851588,0.495518865525274
0.63,1,0.0273038931445255,0.00686666463209937,-0.0162460198777225,0.0146488845484787,0.000152592547379986,-0.0122684408093509,-0.00554419588813949,-0.159805088452813,-0.00619525742362743,0.00826034323150324,0.00485244300668355,0.000630715862503942,-0.0309254229356772,-0.0581581062247587,-0.0189011302021343,-0.0125125888851588,0.49778740806299
0.66,1,0.0277820164596494,0.00210577715384381,-0.0196640929390342,0.0146488845484787,0.000152592547379986,-0.0125532802311268,-0.0054628131962035,-0.159927162490717,-0.00603249203975545,0.0086774295276752,0.00148523412783186,0.000600197353027945,-0.0304574724570452,-0.0581581062247587,-0.0179754020813623,-0.0125125888851588,0.496688741721854
0.69,1,0.0275378683838415,0.000183111056855983,-0.0167139703563545,0.0146488845484787,0.000152592547379986,-0.0124108605202389,-0.00554419588813949,-0.160171310566525,-0.00574765261797947,0.010752688172043,0.00560523290709148,0.000579851680043947,-0.0306304106774092,-0.0580665506963307,-0.0163274025696585,-0.0125125888851588,0.499933876562802
0.72,1,0.0273140659810175,0.000152592547379986,-0.0161951556952625,0.0146488845484787,0.000152592547379986,-0.0124820703756829,-0.00505589973652353,-0.160618915372173,-0.00550350454217149,0.0128177739799188,0.00842310861537523,0.000305185094759972,-0.0299488306324452,-0.0571815139215267,-0.0163274025696585,-0.0125125888851588,0.49941506190171
0.75,1,0.0273140659810175,0.000152592547379986,-0.0162460198777225,0.0146488845484787,0.000152592547379986,-0.0125227617216508,-0.00456760358490758,-0.159927162490717,-0.00603249203975545,0.0165715506454665,0.00389619637643564,-0.000101728364919991,-0.0291350037130853,-0.0563778598386588,-0.0163274025696585,-0.0125125888851588,0.50424715923541
0.78,1,0.0274768313648895,0.000152592547379986,-0.0162867112236905,0.0146692302214627,0.000152592547379986,-0.0125431073946348,-0.00411999877925962,-0.160212001912493,-0.00611387473169144,0.0162968840601825,0.000885036774803919,0.000335703604235969,-0.0282804854477574,-0.0556352427747429,-0.0163274025696585,-0.0125125888851588,0.507878861863053
0.81,1,0.0276294239122695,0.000152592547379986,-0.0164494766075625,0.0146488845484787,0.000152592547379986,-0.0124108605202389,-0.00460829493087558,-0.160781680756045,-0.0065614795373394,0.0188299203466903,-0.0043844925280516,0.000834172592343923,-0.0277311522771895,-0.0552385021515549,-0.0163274025696585,-0.0125125888851588,0.509435305846329
0.84,1,0.0281889299193294,0.000925728120771915,-0.0167648345388145,0.0146488845484787,0.000152592547379986,-0.0124210333567309,-0.00607318338572344,-0.159845779798781,-0.00672424492121138,0.0222785119174779,-0.00686666463209937,0.000559506007059949,-0.0285653248695334,-0.0566525264239428,-0.0163274025696585,-0.0125125888851588,0.510717083244321
0.87,1,0.0304981638030132,0.0075685903500473,-0.0199184138513342,0.0146488845484787,0.000152592547379986,-0.0126346629230628,-0.00505589973652353,-0.160089927874589,-0.00741599780266732,0.021912289803766,-0.00748720765811131,-0.00154627114678386,-0.0291960407320373,-0.0596026490066225,-0.022125919370098,-0.0125125888851588,0.509475997192297
0.9,1,0.0303252255826492,0.000691752881455936,-0.0194708090456862,0.0145675018565427,0.000152592547379986,-0.0123803420107629,-0.00558488723410749,-0.160456149988301,-0.00717184972685934,0.0228685364340139,-0.0128076011434268,0.000956246630247912,-0.0290943123671173,-0.0593686737673065,-0.0184840439059623,-0.0125125888851588,0.506993825088249
0.93,1,0.0301522873622852,0.000152592547379986,-0.0180160934273303,0.0131433047476628,-0.00135298725343588,-0.00699891150649536,-0.00688701030508337,-0.159031952879421,-0.0076194545325073,0.0232856227301859,-0.00750755333109531,0.00130212307097588,-0.0304676452935372,-0.0605283771273944,-0.0178533280434584,-0.00893175043997518,0.504267504908394
0.96,1,0.0301319416893012,0.000152592547379986,-0.0177414268420464,0.0128686381623788,-0.00405896176030763,-0.00475071464176356,-0.00505589973652353,-0.160334075950397,-0.00749738049460331,0.0265205847346416,-0.00744651631214331,0.0011291848506119,-0.032390311390525,-0.0624510432243823,-0.0178533280434584,-0.00780256558936328,0.501764987131362
0.99,1,0.0303455712556332,0.000152592547379986,-0.0179143650624104,0.0131636504206468,0.00162765383871985,-0.00246182643106377,-0.00717184972685934,-0.160578224026205,-0.0075787631865393,0.0270292265592415,-0.00340790022481969,0.00157678965625985,-0.0331532741274249,-0.0634276355276142,-0.0178533280434584,-0.0117597989847509,0.499476098920662
1.02,1,0.0304167811110772,0.000152592547379986,-0.0178635008799504,0.0123701691742709,-0.00335703604235969,-0.00184128340505183,-0.00676493626717938,-0.160171310566525,-0.00696839299701936,0.0293282876064333,-0.00300098676513972,0.00489313435265155,-0.0333058666748049,-0.0636616107669301,-0.0178838465529344,-0.0101524908190151,0.500513728242846
1.05,1,0.0316375214901171,0.00404878892381563,-0.0185755994343903,0.0122074037903989,0.00011190120141199,-0.00411999877925962,-0.00554419588813949,-0.159764397106845,-0.00737530645669932,0.0308745587532172,-0.00189214758751183,0.00318409782199571,-0.0333465580207729,-0.064892523982462,-0.0199082410148422,-0.0102847376934111,0.497563605660166
1.08,1,0.0331532741274249,0.00476088747825556,-0.0227362895596179,0.0123701691742709,0.000152592547379986,-0.00708029419843135,-0.00391654204941964,-0.159764397106845,-0.00961333048493912,0.0290231025116733,-0.00912503433332316,0.0011088391776279,-0.032837916196173,-0.0659403261411379,-0.0229194006164739,-0.010528885769219,0.492110965300455
1.11,1,0.0331125827814569,0.000345876440727968,-0.0205084383678701,0.0125125888851588,0.000152592547379986,-0.0087181208736432,-0.00688701030508337,-0.160252693258461,-0.00920641702525915,0.0275073498743655,-0.0142114525793227,0.00283822138126774,-0.033102409944965,-0.0661539557074699,-0.0199591051973022,-0.010528885769219,0.490910570594399
1.14,1,0.033010854416537,0.000152592547379986,-0.0197353027944782,0.0125125888851588,0.000152592547379986,-0.00973540452284311,-0.00595110934781945,-0.159764397106845,-0.00961333048493912,0.0286975717439294,-0.0177210811690624,0.000172938220363984,-0.0341705577766249,-0.0671305480107018,-0.0198370311593982,-0.010528885769219,0.486729534796187
1.17,1,0.032959990234077,0.000152592547379986,-0.0198166854864142,0.010589922788171,-0.0076398002054913,-0.00747703482161931,-0.0053814305042675,-0.159357483647165,-0.010508540096235,0.0293486332794173,-0.0140385143589587,0.0011291848506119,-0.0348724834945728,-0.0677002268542538,-0.0198370311593982,-0.00370291248308766,0.482884202602212
1.2,1,0.032878607542141,0.000152592547379986,-0.0197759941404462,0.010376293221839,0.00011190120141199,-0.0043234555090996,-0.00916572567929116,-0.159520249031037,-0.010467848750267,0.0290739666941333,-0.00876898505610319,0.00159713532924385,-0.0365916928617206,-0.0693990905484176,-0.0197759941404462,-0.00845362712485122,0.48114464756208
1.23,1,0.032807397686697,0.000152592547379986,-0.0194402905362102,0.010376293221839,0.000152592547379986,-0.00620543026011943,-0.00774152857041129,-0.159194718263293,-0.0101830093284911,0.0312712993764051,-0.00604266487624744,0.0032451348409477,-0.0382702108829005,-0.0709962258776615,-0.0193792535172582,-0.00854518265327921,0.481002227851192
1.26,1,0.032715842158269,0.000152592547379986,-0.0193182164983062,0.010335601875871,0.000152592547379986,-0.00737530645669932,-0.00709046703492335,-0.159845779798781,-0.010467848750267,0.032970163070569,-0.00527970213934751,0.00319427065848771,-0.0388297168899604,-0.0714438306833094,-0.0193792535172582,-0.00854518265327921,0.479344055502996
1.29,1,0.032512385428429,0.000152592547379986,-0.0192775251523382,0.00897244178594317,-0.00292977690969573,-0.0032349620044557,-0.00530004781233151,-0.160944446139917,-0.0101830093284911,0.0343740145064648,-0.00284839421775974,0.00400809757784763,-0.0383515935748365,-0.0708232876572975,-0.0193792535172582,-0.00357066560869167,0.480554623045544
1.32,1,0.032502212591937,0.000152592547379986,-0.0191961424604022,0.00810775068412325,-0.00457777642139958,-0.00385550503046765,-0.00863673818170721,-0.161066520177821,-0.0116885891293069,0.0355642363760287,-0.00378429517502365,0.00612404756818344,-0.0392468031861324,-0.0716778059226254,-0.0193792535172582,-0.0054729860326955,0.478316599017304
1.35,1,0.032502212591937,0.000152592547379986,-0.0193894263537502,0.00808740501113926,0.000132246874395988,-0.00373343099256366,-0.00729392376476333,-0.160537532680237,-0.0125837987406028,0.0366425570441806,-0.000559506007059949,0.00733461511073133,-0.0394706055889564,-0.0719016083254494,-0.0193792535172582,-0.0065004425183874,0.476790673543504
1.38,1,0.032502212591937,0.000152592547379986,-0.0193283893347982,0.00808740501113926,0.000152592547379986,-0.00497451704458754,-0.00717184972685934,-0.160293384604429,-0.0114037497075309,0.0386466058331044,0.00389619637643564,0.00584938098289946,-0.0395214697714164,-0.0719829910173854,-0.0193792535172582,-0.0065614795373394,0.471093885107985
1.41,1,0.032502212591937,0.000152592547379986,-0.0193690806807662,0.00804671366517126,0.000152592547379986,-0.00571713410850347,-0.00721254107282734,-0.160456149988301,-0.0118106631672109,0.0400504572690003,0.00566626992604348,0.00902330596840317,-0.0391450748212124,-0.0716371145766574,-0.0193792535172582,-0.0065614795373394,0.45682139550971
1.44,1,0.032481866918953,0.000152592547379986,-0.0193182164983062,0.00791446679077527,0.000152592547379986,-0.00630715862503942,-0.00615456607765943,-0.161676890367341,-0.0125024160486668,0.0424410738446201,-0.000315357931251971,0.010335601875871,-0.0385753959776605,-0.0709962258776615,-0.0193792535172582,-0.0065614795373394,0.433200069175288
1.47,1,0.032278410189113,0.000152592547379986,-0.0192164881333862,0.00772118289742729,0.000152592547379986,-0.0065513067008474,-0.00631733146153142,-0.160863063447981,-0.0130314035462508,0.0449842829676199,-0.00374360382905566,0.0128889838353628,-0.0382803837193925,-0.0704875840530615,-0.0193792535172582,-0.00628681295205542,0.38827682322662
1.5,1,0.0320240892768131,0.000152592547379986,-0.0193385621712902,0.00719219539984334,-0.00187180191452783,-0.0064902696818954,-0.00554419588813949,-0.161310668253629,-0.0122582679728589,0.0486973682871995,-0.011169774468215,0.0145471561835587,-0.0378632974232205,-0.0698060040080976,-0.0190537227495142,-0.00610370189519944,0.32141076896471
1.53,1,0.0316680399995931,0.000152592547379986,-0.0187281919817703,0.00527970213934751,-0.00565609708955148,-0.00361135695465967,-0.00468967762281157,-0.162938322092349,-0.0125024160486668,0.054862107201351,-0.0226345611946979,0.0195928830835902,-0.0374055197810806,-0.0689820042522456,-0.0187688833277383,0.00137333292641987,0.24019084241259
1.56,1,0.0312814722128971,0.000152592547379986,-0.0189621672210863,0.00552385021515549,0.000152592547379986,-0.0032959990234077,-0.00513728242845953,-0.165339111504461,-0.0139266131575467,0.0579444766584267,-0.0368867051199886,0.0269478438673055,-0.0376293221839045,-0.0687887203588977,-0.0186162907803583,-0.00416069012522762,0.142796105838191
1.59,1,0.0292062135685293,-0.00572730694499547,-0.0163375754061505,0.00570696127201147,0.000152592547379986,-0.00367239397361166,-0.00680562761314737,-0.165623950926237,-0.011200292977691,0.0470697144484797,-0.0460320851262958,0.0242418693604338,-0.0397045808282723,-0.0688090660318817,-0.0139774773400067,-0.00473036896877956,0.054546749270099
1.62,1,0.0285551520330414,-0.00114953052359589,-0.0163070568966745,0.00571713410850347,0.000152592547379986,-0.00391654204941964,-0.0124617247026989,-0.166275012461725,-0.0122582679728589,0.043438011820836,-0.0551164281136509,-0.00179041922259184,-0.043651641387168,-0.0720847193823054,-0.0171717479984944,-0.00473036896877956,0.0157068595436466
1.65,1,0.0275785597298095,-0.00133264158045188,-0.0144962920010987,0.00560523290709148,0.000152592547379986,-0.0043438011820836,-0.0285348063600574,-0.159560940377005,-0.00920641702525915,0.000152592547379986,-0.0790734580523087,-0.0601519821771905,-0.0554826502273629,-0.0829696544287444,-0.0151778720460626,-0.00460829493087558,0.00454725791192358
1.68,1,0.0272428561255735,0.000132246874395988,-0.0156356496882026,0.00549333170567949,0.000152592547379986,-0.00429293699962361,-0.0490839360738955,-0.154474522131006,-0.00371308531957966,-0.00263476465142776,-0.115227718944873,-0.195338806319366,-0.0845159255755282,-0.111657053336182,-0.0158696249275185,-0.00411999877925962,0.00223802402823979
1.71,1,0.0244453260902738,-0.00725323241879533,-0.0137740206101667,0.00558488723410749,0.000152592547379986,-0.00414034445224362,-0.0500198370311594,-0.15642770673747,-0.00566626992604348,-0.0172327850174464,-0.159825434125797,-0.271279030732139,-0.11220638650675,-0.136549984232103,-0.011169774468215,-0.0043641468550676,0.00174972787662384
1.74,1,0.0237332275358338,-0.00115970336008789,-0.011312194179103,0.00570696127201147,0.000152592547379986,-0.0043641468550676,-0.0454217149367758,-0.15581733654795,-0.00790429395428327,-0.0296029541917173,-0.190588091677602,-0.271360413424075,-0.137170527258115,-0.160812199265521,-0.0129907122002828,-0.00473036896877956,0.00167851802117985
1.77,1,0.0228481907610299,-0.00136316008992787,-0.0136824650817387,0.00576799829096347,0.000152592547379986,-0.00456760358490758,-0.0427767774488561,-0.15378276924955,-0.010711996826075,-0.0483514918464716,-0.239305805637786,-0.229122796309295,-0.164504938912117,-0.187251401308227,-0.0135705638803268,-0.00473036896877956,0.00167851802117985
1.8,1,0.0203456729839981,-0.00661234371979939,-0.0100711081270791,0.00562557858007548,0.000152592547379986,-0.00446587521998759,-0.032888780378633,-0.156264941353598,-0.0157577237261066,-0.0597043773715425,-0.258542639444156,-0.169957579271828,-0.182938118635619,-0.203212581764173,-0.00789412111779127,-0.00468967762281157,0.00167851802117985
1.83,1,0.0198777225053662,-0.000264493748791976,-0.0100507624540951,0.00549333170567949,0.000152592547379986,-0.0043743196915596,-0.0252794986826177,-0.156712546159246,-0.0178329823704744,-0.0636412650939461,-0.254788862778609,-0.121880754010641,-0.192887152724794,-0.21266314686524,-0.011261329996643,-0.00411999877925962,0.00167851802117985
1.86,1,0.0172226121809544,-0.00694804732403536,-0.00984730572425509,0.00534073915829951,0.000152592547379986,-0.0043641468550676,-0.0175481429486984,-0.15520696635843,-0.022064882351146,-0.0620746482741783,-0.269163080741803,-0.0789106926684367,-0.201869767347229,-0.219061861018708,-0.00701925717947935,-0.00411999877925962,0.00167851802117985
1.89,1,0.0159001434369945,-0.00145471561835587,-0.00681580044963937,0.00523901079337952,0.000152592547379986,-0.0043743196915596,0.0170801924700664,-0.163223161514125,-0.0283720409761854,-0.0492467014577675,-0.198736533707694,0.00563575141656748,-0.190354116438287,-0.206172877183345,-0.00797550380972727,-0.00411999877925962,0.00167851802117985
1.92,1,0.0151270078636026,0.000132246874395988,-0.00838241726940723,0.00518814661091952,0.000152592547379986,-0.00418103579821162,0.0317290770185451,-0.160537532680237,-0.0318308053834651,-0.032141076896471,-0.105792413098544,0.0733766696167893,-0.151687164932198,-0.166763308613341,-0.00854518265327921,-0.00411999877925962,0.00167851802117985
1.95,1,0.0132857244585508,-0.00509659108249153,-0.00780256558936328,0.00518814661091952,0.000152592547379986,-0.00394706055889564,0.0315256202887051,-0.156671854813278,-0.0306507563503932,-0.0137231564277067,-0.0501927752515234,0.0662149927264219,-0.11200292977691,-0.125176753034048,-0.00589007232886746,-0.00411999877925962,0.00167851802117985
1.98,1,0.0132958972950428,0.00260424614195176,-0.00362152979115167,0.00497451704458754,-0.000478123315123956,-0.00408948026978362,-0.0260119429100416,-0.154474522131006,-0.0203151544745221,-0.0170293282876064,-0.130659911903236,-0.00162765383871985,-0.113691620634582,-0.12691630807418,-0.00863673818170721,-0.00411999877925962,0.00167851802117985
2.01,1,0.00956246630247912,-0.0053916033407595,-0.00576799829096347,0.00274666585283975,-0.00704977568895535,-0.000752789900407931,-0.032115644805241,-0.162612791324605,-0.00961333048493912,-0.0148319956053346,-0.148869289223914,-0.0398470005391603,-0.124759666737877,-0.134220404675436,-0.00244148075807978,0.0032858261869157,0.00173955504013184
2.04,1,0.00334686320586769,-0.00816878770307525,0.00134281441694388,0.00274666585283975,0.000152592547379986,0.000152592547379986,-0.0527868485569831,-0.161798964405245,-0.00485244300668355,-0.00100711081270791,-0.0522680338958912,-0.0290943123671173,-0.136132897935931,-0.139398378449863,0.00160730816573585,-0.00167851802117985,0.0136824650817387
2.07,1,0.000122074037903989,-0.000722271390931934,0.000244148075807978,0.00160730816573585,-0.00670389924822738,0.00125125888851588,-0.0391959390036724,-0.149469486576942,-0.00961333048493912,-0.00387585070345164,-0.0138350576291187,-0.011373231198055,-0.147058524328338,-0.147007660145878,0.000366222113711966,0.00285856705425174,0.0292570777509893
2.1,1,-0.00257372763247576,0.000152592547379986,0.000152592547379986,-0.000406913459679963,-0.00643940549943541,0.00369273964659566,-0.0377310505488245,-0.15622425000763,-0.00993886125268309,-0.00677510910367138,-0.00304167811110772,-0.00781273842585528,-0.15668202764977,-0.15388449761447,0.00134281441694388,0.00425224565365561,0.0490330718914355
2.13,1,-0.00480157882422356,0.000152592547379986,0.00114953052359589,-0.0043946653645436,-0.0145369833470667,0.00741599780266732,-0.0371206803593046,-0.156183558661662,-0.010427157404299,-0.0114953052359589,0.00834172592343923,0.0124515518662069,-0.165227210303049,-0.160212001912493,0.00279753003529974,0.0135603910438348,0.0707113864558855
2.16,1,-0.00620543026011943,0.000152592547379986,0.00354014709921567,-0.0086469110181992,-0.0142317982523067,0.0128584653258868,-0.0361033967101047,-0.157973977884253,-0.011078218939787,-0.00890123193049918,0.0186468092898343,0.0032756533504237,-0.169469283120212,-0.163040050457269,0.00369273964659566,0.0173752047283344,0.0837936541845963
2.19,1,-0.00734478794722332,0.000152592547379986,0.00441501103752759,-0.0125125888851588,-0.0117597989847509,0.0178736737164424,-0.0319528794213691,-0.159438866339101,-0.0101830093284911,-0.0148218227688426,0.0270699179052095,-0.00528987497583951,-0.170049134800256,-0.162490717286701,0.0043031098361156,0.021251055431786,0.0956450086977752
2.22,1,-0.00800602231920326,0.000152592547379986,0.00448622089297159,-0.0135807367168188,-0.000478123315123956,0.0178024638609984,-0.032766706340729,-0.159479557685069,-0.00993886125268309,-0.0163172297331665,0.032349620044557,-0.00879950356557919,-0.168451999471012,-0.160201829076001,0.00491348002563555,0.0133162429680268,0.114383373516037
2.25,1,-0.00848414563432722,0.000152592547379986,0.00498468988107954,-0.0151168350271106,-0.00739565212968332,0.0153915016123946,-0.0347198909471928,-0.15541042308827,-0.00965402183090711,-0.0211188085573901,0.0229804376354259,-0.0151880448825546,-0.170028789127272,-0.161351359599597,0.00506607257301553,0.0185247352519303,0.127821690521968
2.28,1,-0.00891140476699118,0.000152592547379986,0.00520849228390352,-0.0165817234819585,-0.00479140598773156,0.0171615751620024,-0.0333770765302489,-0.157567064424573,-0.00961333048493912,-0.0191961424604022,0.0244453260902738,-0.0165003407900225,-0.17047639393292,-0.161361532436089,0.00549333170567949,0.0163680939156265,0.136031169571011
2.31,1,-0.00922676269824315,0.000152592547379986,0.00557471439761549,-0.0183212785220903,-0.00298064109215573,0.0188706116926583,-0.032400484227017,-0.156549780775374,-0.0087588122196112,-0.0207525864436781,0.0263883378602456,-0.0140079958494827,-0.172348195847448,-0.162897630746381,0.00549333170567949,0.0206508580787581,0.145898820968251
2.34,1,-0.00930814539017914,0.000152592547379986,0.0054831588691875,-0.0185043895789463,0.000152592547379986,0.0175583157851904,-0.0346791996012248,-0.157200842310862,-0.00843328145186722,-0.0195013275551622,0.0345672983998128,-0.0177109083325704,-0.171412294890184,-0.161839655751213,0.00549333170567949,0.0162968840601825,0.165623950926237
2.37,1,-0.00920641702525915,0.000152592547379986,0.0054729860326955,-0.0202541174555701,-0.00743634347565132,0.0185247352519303,-0.0343129774875128,-0.155695262510046,-0.00851466414380322,-0.021810561438846,0.0361644337290567,-0.0210882900479141,-0.172022665079704,-0.162592445651621,0.00549333170567949,0.0229804376354259,0.178889329711804
2.4,1,-0.00876898505610319,0.000152592547379986,0.0054221218502355,-0.021230709758802,-9.15555284279916e-05,0.02172917874691,-0.0316273486536251,-0.158787804803613,-0.0076601458784753,-0.0226447340311899,0.0465814182968637,-0.0227159438866339,-0.170395011240984,-0.161402223782057,0.0054628131962035,0.0194504633727022,0.189041820530819
2.43,1,-0.00786360260831528,0.000152592547379986,0.00515762810144353,-0.0230109561449019,-0.00743634347565132,0.021698660237434,-0.032603940956857,-0.15642770673747,-0.00700908434298736,-0.0197963398134302,0.0485854670857875,-0.022115746533606,-0.169326863409324,-0.161290322580645,0.00487278867966755,0.0253812270475377,0.204301075268817
2.46,1,-0.00632750429802342,0.000152592547379986,0.00395723339538764,-0.0238044373912778,-9.15555284279916e-05,0.0241299681590218,-0.0297555467390973,-0.160781680756045,-0.00635802280749942,-0.0232144128747419,0.054190699992879,-0.0208644876450901,-0.165573086743777,-0.159031952879421,0.00396740623187963,0.021617277545498,0.216010010071108
2.49,1,-0.00427259132663961,0.000152592547379986,0.00315357931251971,-0.0238247830642618,0.000152592547379986,0.021688487400942,-0.0305693736584572,-0.157729829808445,-0.00676493626717938,-0.0234382152775658,0.0498367259743034,-0.0172022665079704,-0.163162124495173,-0.158665730765709,0.00281787570828374,0.0210577715384381,0.225328328297779
2.52,1,-0.00198370311593982,0.000152592547379986,0.00119022186956389,-0.0249743135878577,-0.00620543026011943,0.02183090711183,-0.0273140659810175,-0.158543656727805,-0.00615456607765943,-0.0232144128747419,0.0271004364146855,-0.0136417737357707,-0.160079755038097,-0.157851903846349,0.00137333292641987,0.0252896715191097,0.234148177536342
2.55,1,-3.05185094759972e-05,0.000152592547379986,0.000152592547379986,-0.0263985106967376,-0.00132246874395988,0.0264086835332296,-0.0269071525213375,-0.159967853836685,-0.00615456607765943,-0.0238858200832138,0.0116580706198309,-0.00935900957263914,-0.15688548437961,-0.156692200486262,0.000274666585283975,0.0257881405072176,0.247820469781589
2.58,1,0.00138350576291187,0.000152592547379986,0.000152592547379986,-0.0263985106967376,0.000152592547379986,0.0242622150334178,-0.0304066082745852,-0.157689138462477,-0.00631733146153142,-0.0256864121422976,0.00985747856074709,-0.0151168350271106,-0.156926175725578,-0.158207953123569,-0.000244148075807978,0.0234992522965178,0.257566047140924
2.61,1,0.00242113508509578,0.000152592547379986,0.000152592547379986,-0.0263985106967376,0.000152592547379986,0.0235602893154698,-0.0299590034689372,-0.157770521154413,-0.0053814305042675,-0.0254219183935057,0.00910468866033916,-0.0153406374299346,-0.157729829808445,-0.160079755038097,-0.000915555284279916,0.0234992522965178,0.26354767499822
2.64,1,0.00320444349497971,0.000152592547379986,0.000152592547379986,-0.0263985106967376,0.000152592547379986,0.0234280424410738,-0.0294300159713533,-0.157933286538285,-0.00501520839055554,-0.0263069551683096,0.00491348002563555,-0.0147404400769066,-0.158218125960061,-0.161351359599597,-0.00134281441694388,0.0234992522965178,0.268176315602079
2.67,1,0.00360118411816767,0.000152592547379986,0.000152592547379986,-0.0265205847346416,0.000152592547379986,0.0235094251330098,-0.0289417198197373,-0.158136743268125,-0.00558488723410749,-0.0267036957914975,0.000732444227423933,-0.0163884395886105,-0.158014669230221,-0.161544643492945,-0.00167851802117985,0.0234992522965178,0.272682882168035
2.7,1,0.00358083844518367,0.000152592547379986,0.000152592547379986,-0.0266223130995615,0.000152592547379986,0.0236009806614378,-0.0279651275165054,-0.158096051922157,-0.00428276416313161,-0.0257983133437096,-0.00863673818170721,-0.0119530828780989,-0.158085879085665,-0.161615853348389,-0.00167851802117985,0.0234992522965178,0.279417299925738
2.73,1,0.00283822138126774,0.000152592547379986,0.000152592547379986,-0.0267138686279895,0.000152592547379986,0.0239875484481338,-0.0273954486729535,-0.158380891343933,-0.00379446801151565,-0.0278939176610614,-0.0255745109408856,-0.0127770826339508,-0.158075706249173,-0.160842717774997,-0.00128177739799188,0.0234992522965178,0.28537858211005
2.76,1,0.00118004903307189,0.000152592547379986,0.000152592547379986,-0.0291451765495773,-0.00767031871496729,0.0275175227108575,-0.0246284371471297,-0.160293384604429,-0.00371308531957966,-0.0291960407320373,-0.0473850723797316,-0.0130619220557268,-0.158126570431633,-0.159194718263293,-0.000396740623187963,0.0313628549048331,0.291360209967345
2.79,1,-0.00118004903307189,0.000152592547379986,0.000152592547379986,-0.0291858678955453,0.000142419710887987,0.0279549546800134,-0.0382193467004405,-0.15663116346731,-0.00355031993570767,-0.032135990478225,-0.0163884395886105,-0.0166631061738945,-0.161788791568753,-0.160405285805841,0.000549333170567949,0.0259712515640736,0.302540157272052
2.82,1,-0.00624612160608743,-0.00769066438795129,0.00472019613228757,-0.0292977690969573,0.000152592547379986,0.0261441897844376,-0.0334991505681529,-0.155451114434238,-0.00277718436231574,-0.0299386577959532,0.00574765261797947,-0.0377107048758405,-0.166213975442773,-0.159733878597369,0.00725323241879533,0.0259407330545976,0.313567512029379
2.85,1,-0.00822982472202724,-0.000701925717947935,0.00666320790225939,-0.0292977690969573,0.000152592547379986,0.0259814244005656,-0.0308135217342652,-0.156916002889086,-0.0011088391776279,-0.0263476465142776,0.010681478316599,-0.0440382091738639,-0.167251604764957,-0.158797977640105,0.00561540574358348,0.0259407330545976,0.319203263445947
2.88,1,-0.00985747856074709,0.000152592547379986,0.00564592425305948,-0.0293486332794173,0.000152592547379986,0.0259610787275816,-0.0318714967294331,-0.156183558661662,-0.00119022186956389,-0.0247708568580177,0.0145675018565427,-0.0411287779371522,-0.166926073997213,-0.15683462019715,0.00589007232886746,0.0259407330545976,0.333048493911557
2.91,1,-0.0114342682170069,0.000152592547379986,0.00642923266294341,-0.0301624601987772,-0.00451673940244758,0.0264798933886736,-0.032644632302825,-0.155898719239886,-0.000946073793755913,-0.0209153518275501,0.0236518448438978,-0.0354014709921567,-0.167678863897621,-0.15602079327779,0.00679545477665537,0.0279447818435214,0.360688090660319
2.94,1,-0.0154220201218706,-0.00750755333109531,0.00970488601336711,-0.0318918424024171,-0.00297046825566373,0.0314849289427371,-0.0316680399995931,-0.156061484623758,-0.000457777642139958,-0.0196030559200822,0.0421053702403841,-0.0289620654927213,-0.167373678802861,-0.151727856278166,0.0127465641244748,0.032563249610889,0.396832178716391
2.97,1,-0.0166529333374025,-0.000915555284279916,0.0121463667714469,-0.032207200333669,-0.000478123315123956,0.0296843368836533,-0.0352488784447768,-0.153823460595518,-0.000783308409883928,-0.0199387595243182,0.0678223008921578,-0.032390311390525,-0.167750073753065,-0.15088351084933,0.010905280719423,0.0283822138126774,0.443861201818903
3,1,-0.0175684886216824,0.000152592547379986,0.010467848750267,-0.0349742118594928,-0.010539058605711,0.0331329284544409,-0.0288196457818333,-0.158747113457645,-0.00114953052359589,-0.0243944619078138,0.0788089643035167,-0.0243435977253538,-0.165308592994985,-0.147506129133986,0.010681478316599,0.0368358409375286,0.494338816492203
3.03,1,-0.0182500686666463,0.000152592547379986,0.010945972065391,-0.0369273964659566,-0.00422172714417961,0.0377819147312845,-0.0260526342560096,-0.160659606718141,-0.00114953052359589,-0.033082064271981,0.0947192805770033,-0.0166122419914345,-0.157027904090498,-0.138543860184535,0.011078218939787,0.0381684825179805,0.557746106346833
3.06,1,-0.0186569821263263,0.000152592547379986,0.011373231198055,-0.0369273964659566,0.000152592547379986,0.0336313974425489,-0.0263374736777856,-0.159479557685069,-0.00102745648569191,-0.0425631478825241,0.097364218064923,-0.0163172297331665,-0.149927264219082,-0.131026134016948,0.011291848506119,0.032807397686697,0.615263323872595
3.09,1,-0.0191045869319742,0.000152592547379986,0.0114037497075309,-0.0369986063214006,0.000152592547379986,0.032736187831253,-0.0258898688721376,-0.158950570187485,0.00076296273689993,-0.0499689728486994,0.105573697113966,-0.0137740206101667,-0.143070772423475,-0.123772901598153,0.0115970336008789,0.032807397686697,0.666768395031587
3.12,1,-0.0195623645741142,0.000152592547379986,0.0118106631672109,-0.0368358409375286,0.000152592547379986,0.032909126051617,-0.0236518448438978,-0.158950570187485,0.000966419466739911,-0.0573137607959227,0.113244015828934,-0.0118310088401949,-0.136193934954883,-0.116438286487421,0.0117496261482589,0.032807397686697,0.718802453688162
3.15,1,-0.0200404878892382,0.000152592547379986,0.0119123915321309,-0.0357676931058687,0.0065106153548794,0.032634459466333,-0.021413820815658,-0.159560940377005,0.00300098676513972,-0.054801070182399,0.113823867508978,-0.0076398002054913,-0.127913246050396,-0.107659128594826,0.0122786136458429,0.0287789544358654,0.781009348836736
3.18,1,-0.0205694753868221,0.000152592547379986,0.0123701691742709,-0.0340688294117049,0.00509659108249153,0.0263679921872616,-0.0192164881333862,-0.161554816329437,0.00454725791192358,-0.04376354258858,0.116987619657989,-0.00827051606799524,-0.119276507868689,-0.0984323658965829,0.0125125888851588,0.0277616707866654,0.840601825006867
3.21,1,-0.0211188085573901,0.000152592547379986,0.0128381196529028,-0.0298979664499853,0.0177922910245064,0.0231940672017579,-0.0172633035269224,-0.162124495172989,0.00401827041433963,-0.032532731101413,0.122267321797337,-0.00493382569861955,-0.108818831954914,-0.087486393831192,0.0128177739799188,0.0141504155603707,0.880611590929899
3.24,1,-0.02172917874691,0.000152592547379986,0.0130822677287108,-0.0246589556566057,0.0161646371857865,0.0141911069063387,-0.0223090304269539,-0.160252693258461,0.00491348002563555,-0.0197963398134302,0.116204311248105,-0.011129083122247,-0.102603228858303,-0.0806502477085686,0.0132450331125828,0.010600095624663,0.895443586535234
3.27,1,-0.0239672027751498,-0.00614439324116743,0.0147200944039226,-0.021301919614246,0.00994903408917508,0.0119327372051149,-0.0132348602760908,-0.159276100955229,0.00475071464176356,-0.00373343099256366,0.105675425478886,-0.0116784162928149,-0.0967538478754031,-0.0725730155339213,0.0170395011240984,0.0119327372051149,0.895809808648946
3.3,1,-0.0250353506068097,-0.0021973326822718,0.0186875006358023,-0.0152490819015066,0.0207932777896461,0.0043336283455916,-0.0178329823704744,-0.158909878841517,0.00471002329579557,0.00569678843551948,0.111321349731946,-0.0127770826339508,-0.0899889116082237,-0.064719585762098,0.0170089826146224,0.000386567786695964,0.897284869940285
3.33,1,-0.0251777703176977,0.000101728364919991,0.0155339213232826,-0.0122480951363669,0.00697856583351136,0.00302133243812372,-0.010996836247851,-0.156590472121342,0.00426241849014761,0.0247301655120497,0.097496464939319,-0.0118920458591469,-0.0838953825495163,-0.0585039826654866,0.0153813287759026,0.00616473891415143,0.895647043265074
3.36,1,-0.0253710542110457,0.000152592547379986,0.0150557980081586,-0.0064800968454034,0.021647796054974,-0.000793481246375927,-0.0153915016123946,-0.158950570187485,0.00414034445224362,0.0224005859553819,0.105858536535742,-0.0118106631672109,-0.0750348419649851,-0.0494501581876075,0.0154118472853786,-0.00829086174097924,0.891791538234606
3.39,1,-0.0257169306517736,0.000152592547379986,0.0155440941597746,-0.00139367859940387,0.0145878475295267,-0.00420138147119561,-0.0141300698873867,-0.158584348073773,0.00458794925789158,0.032644632302825,0.114749595629749,-0.0114749595629749,-0.0716778059226254,-0.0457167271950438,0.0157170323801386,-0.00927762688070314,0.896328623310037
3.42,1,-0.0260017700735496,0.000152592547379986,0.0157780693990905,0.00393688772240364,0.0190130314035463,-0.00731426943774733,-0.0124210333567309,-0.158706422111677,0.00348928291675568,0.0397859635202083,0.125166580197556,-0.00660217088330739,-0.0640176600441501,-0.0377819147312845,0.0157170323801386,-0.0145369833470667,0.893429364909818
3.45,1,-0.0271716462701295,-0.00299081392864772,0.0163274025696585,0.00854518265327921,0.0126448357595548,-0.0137129835912147,-0.0157170323801386,-0.159072644225389,0.00259407330545976,0.0497044790999074,0.130456455173396,-0.00376394950203965,-0.0585039826654866,-0.0311085339925331,0.0172022665079704,-0.0180567847732983,0.888770205796482
3.48,1,-0.0288806828007853,-0.00517797377442752,0.0210069073559781,0.0134993540248828,0.0171615751620024,-0.0165206864630065,-0.0086774295276752,-0.160618915372173,0.00267545599739575,0.054689168980987,0.147139907020274,-0.00261441897844376,-0.0511185033722953,-0.022014018168686,0.0211696727398501,-0.0208441419721061,0.891018402661214
3.51,1,-0.0288399914548173,-0.000101728364919991,0.0184738710694703,0.0208644876450901,0.0243842890713218,-0.0268359426658935,-0.00993886125268309,-0.159194718263293,0.00332651753288369,0.06518753624073,0.161737927386293,-0.00087486393831192,-0.0414848272143722,-0.0124312061932229,0.0178533280434584,-0.0351471500798568,0.887122206284778
3.54,1,-0.0288399914548173,0.000152592547379986,0.0176702169866024,0.0258796960356456,0.0143843907996867,-0.032319101535081,-0.00489313435265155,-0.160008545182653,0.00255338195949177,0.0748517309081291,0.157506027405622,-0.00292977690969573,-0.0341705577766249,-0.00510676391898353,0.0177007354960784,-0.0332550024923449,0.88647114474929
3.57,1,-0.0298674479405093,-0.00297046825566373,0.0179143650624104,0.0341807306131169,0.0332041383098849,-0.0409253212073122,-0.00395723339538764,-0.158706422111677,-5.08641824599953e-05,0.0828170618813644,0.17658009582812,0.000671407208471938,-0.0206305124057741,0.00931831822667114,0.0187994018372143,-0.0498977629932554,0.885372478408154
3.6,1,-0.0317392498550371,-0.00516780093793552,0.02213609220659,0.0407523829869482,0.0144454278186387,-0.0517187007253232,-0.0142521439252907,-0.162165186518957,0.000722271390931934,0.0958993296100752,0.183487451806187,-0.00901313313191117,-0.0123905148472549,0.0193894263537502,0.0227769809055859,-0.0493789483321635,0.885372478408154
3.63,1,-0.0317494226915291,-0.000101728364919991,0.0204168828394421,0.0463779615670237,0.0253405357015697,-0.0528275399029511,0.00837224443291523,-0.157933286538285,-0.00444552954700359,0.0934680216884874,0.203314310129093,-0.0053814305042675,0.00115970336008789,0.033021027253029,0.0197454756309702,-0.054129662973927,0.886532181768242
3.66,1,-0.0344859157078768,-0.00772118289742729,0.0223802402823979,0.0574154891608427,0.0351776685893328,-0.0740073854792932,-0.00407930743329162,-0.160049236528621,-0.00204474013489181,0.106835128838974,0.223619291767123,-0.000783308409883928,0.0153304645934426,0.0501012197230954,0.0247505111850337,-0.076031779941201,0.888414156519262
3.69,1,-0.0344859157078768,-0.000701925717947935,0.0229194006164739,0.0662048198899299,0.0285856705425174,-0.0774559770500809,0.00768049155145929,-0.161595507675405,-0.00350962858973968,0.114586830245877,0.248339284442681,-0.00493382569861955,0.0273140659810175,0.0620339569282103,0.021688487400942,-0.0765811131117689,0.885931984415215
3.72,1,-0.0345266070538448,0.000152592547379986,0.0211696727398501,0.0775068412325409,0.0391552476577044,-0.0930611082288074,0.0054424675232195,-0.159764397106845,-0.00473036896877956,0.12706890062156,0.270139673045035,0.00462864060385957,0.043580431531724,0.0783206681519008,0.0210577715384381,-0.0947192805770033,0.889278847621082
3.75,1,-0.0344859157078768,0.000152592547379986,0.0210984628844061,0.0886054058453118,0.0335296690776289,-0.102094587033703,0.00564592425305948,-0.161595507675405,-0.00615456607765943,0.116835027110609,0.28502253283283,-0.0151778720460626,0.0557471439761549,0.0904365164138717,0.0210577715384381,-0.101453698334707,0.888068280078534
3.78,1,-0.0344859157078768,0.000152592547379986,0.0210069073559781,0.101596118045595,0.0445163324889879,-0.117831965086825,0.00849431847081922,-0.155695262510046,-0.00798567664621926,0.128421887874996,0.317687510808639,-0.00141402427238787,0.0730409660125533,0.107771029796238,0.0210577715384381,-0.120436211228777,0.886155786818039
3.81,1,-0.0344859157078768,0.000152592547379986,0.0210272530289621,0.113569546596678,0.0397656178472243,-0.124993641977192,0.0127669097974588,-0.168350271106093,-0.00794498530025127,0.158991261533453,0.350026958016704,0.00228888821069979,0.0894192327646718,0.124128950875373,0.0210577715384381,-0.12610248115482,0.881700084434543
3.84,1,-0.0344859157078768,0.000152592547379986,0.0211493270668661,0.126041444135868,0.0346385082552568,-0.137119663075655,0.00405896176030763,-0.174047059541612,-0.00855535548977121,0.15088351084933,0.380738751386049,0.00356049277219967,0.106947030040386,0.141605883968627,0.0210577715384381,-0.137190872931099,0.871110161646372
3.87,1,-0.032135990478225,0.00747703482161931,0.0192063152968942,0.135451317890968,0.0311899166844691,-0.139347514267403,0.010610268461155,-0.177465132602924,-0.0162053285317545,0.187322611163671,0.444481744844915,0.0361644337290567,0.131178726564328,0.163538519445377,0.0167139703563545,-0.140588600319427,0.849177526169622
3.9,1,-0.0269987080497655,0.0149540696432386,0.0127160456149988,0.142348501032543,0.0137841934466587,-0.138167465234331,-0.0120548112430189,-0.210547196874905,-0.0140893785414187,0.215348775699128,0.585131382183294,0.0554521317178869,0.161697236040325,0.188899400819931,0.0097557501958271,-0.138676107058931,0.80748924222541
3.93,2,-0.0129703665272988,0.0335703604235969,0.00312306080304371,0.142592649108351,-0.00448622089297159,-0.12508519750562,0.0410880865911842,-0.191910560421562,-0.0288196457818333,0.216752627135024,0.634866379792678,0.0692871893470056,0.200130212307098,0.21332438123722,-0.00333669036937569,-0.125075024669128,0.698243151137832
3.96,2,0.0271716462701295,0.114546138899909,-0.0337636443169449,0.138035218359935,-0.0204677470219021,-0.111921547084974,0.00796533097323527,-0.194514806563514,-0.0388297168899604,0.266355377870012,0.648538672037924,0.244819483016449,0.23785109001943,0.210770999277729,-0.0396638894823044,-0.117201249224321,0.474664550716676
3.99,2,0.0779951373841568,0.155034028138066,-0.0191249326049582,0.117730236721905,-0.0891852575253558,-0.119622384309417,0.00279753003529974,-0.216895046845912,0.00336720887885169,0.262001403851436,0.660776594337799,0.19159520249031,0.277036856186611,0.199112928657898,0.0270800907417015,-0.140385143589587,0.275165054272083
4.02,2,0.16864528336436,0.297036652729881,0.0560726747438988,0.0619424013997823,-0.218532873521124,-0.135939614042583,-0.0519323302916552,-0.302753786838384,0.0178533280434584,0.23907183039847,0.861690115054781,-0.0241910051779738,0.321400596128218,0.152796004109826,0.0608437350586464,-0.142704550309763,0.19093396811833
4.05,2,0.310627562283191,0.479547512232836,0.0273954486729535,-0.0158085879085665,-0.27835932493057,-0.0914843185725476,-0.0603961302529984,-0.316181931007823,-0.0195827102470982,0.0502843307799514,1.16430148218228,-0.214402701905372,0.383170059307637,0.0726340525528733,0.00997955259865108,-0.00776187424339529,0.177739799188208
4.08,2,0.459832555111342,0.51676992095706,-0.00315357931251971,-0.065635141046378,-0.117353841771701,0.0265307575711336,0.0158594520910265,-0.231543931394391,0.0119937742240669,-0.00681580044963937,1.45145013784193,-0.304788354136784,0.463657541632333,0.00397757906837163,-0.0261441897844376,0.0901415041556037,0.10335601875871
4.11,2,0.596474094871873,0.465997294025493,-0.0293689789524013,-0.0559607735424869,0.0723797316405733,0.0506810714031393,-0.129774875128432,-0.0903449608854437,0.0152897732474746,-0.123935666982025,0.746147038178655,-0.359070609658091,0.532120731223487,-0.0641193884090701,-0.032878607542141,0.0518916389456872,0.0237637460453098
4.14,2,0.700481175166072,0.357707449568163,-0.0295113986632893,-0.0154220201218706,0.158268990142521,0.0316985585090691,-0.0577918841110467,-0.116753644418673,0.00409965310627562,-0.15617338582517,0.147485783461002,-0.17744478692994,0.556535538804285,-0.143701488285979,-0.0318511510564491,0.0167648345388145,0.00619525742362743
4.17,2,0.760104169845678,0.209255246640421,-0.0567542547888628,0.0295317443362733,0.144413586840419,-0.00178024638609984,-0.0836715801466923,-0.0509557379884233,-0.0123803420107629,-0.158014669230221,-0.490869879248431,-0.00043743196915596,0.545782850632242,-0.214046652628152,-0.0786258532466608,-0.0242316965239418,0.00256355479598376
4.2,2,0.748812321339559,-0.0358897671437727,-0.103284808903266,0.0451368755149998,0.0251370789717297,-0.0190638955860062,-0.233497116000855,0.0792972604551327,-0.0136417737357707,-0.148960844752342,-1.57996358124536,0.0728883734651733,0.484450819421979,-0.26410718100528,-0.107242042298654,-0.0275480412203335,0.00182093773206783
4.23,2,0.670878220974354,-0.261594490391756,-0.0566220079144668,0.0336720887885169,-0.0421562344228441,-0.00728375092827133,-0.0677612638732058,-0.151463362529374,-0.0192978708253222,-0.160527359843745,-2.24950916063926,0.171259702342804,0.363363546657715,-0.307280699077324,-0.0586769208858506,-0.00126143172500788,0.00167851802117985
4.26,2,0.553331095309305,-0.397330647704499,-0.0254727825759657,0.0281991027558214,-0.00794498530025127,-0.00198370311593982,-0.054536576433607,-0.193660288298186,-0.021413820815658,-0.0946989349040193,-2.65672780541398,0.214077171137628,0.21591845454268,-0.337137974181341,-0.0178126366974904,-0.00634784997100742,0.00167851802117985
4.29,2,0.425387330749433,-0.432620217495244,0.00319427065848771,0.0278328806421094,0.000152592547379986,-0.00494399853511155,0.0331532741274249,-0.336690369375693,-0.00851466414380322,-0.202032532731101,-2.9009572639139,0.21774956511124,0.0446689250363679,-0.380504776146733,0.00738547929319132,-0.00961333048493912,0.00167851802117985
4.32,2,0.295093640959909,-0.432874538407544,0.02147485783461,0.0275276955473495,0.000152592547379986,-0.00729392376476333,0.0253812270475377,-0.338195949176509,-0.00147506129133986,-0.142195908485163,-2.44428846095157,0.27876623839025,-0.111453596606342,-0.406476027710807,0.0262357453128656,-0.00961333048493912,0.00167851802117985
4.35,2,0.186081525111647,-0.366008484145634,0.0310881883195491,0.0264493748791976,-0.00550350454217149,-0.0086570838546912,0.101270587277851,-0.346537675099948,-0.000254320912299977,-0.135583564765364,-2.05148472548601,-0.0301828058717612,-0.249315876745913,-0.435305846329132,0.032929471724601,-0.00846379996134322,0.00167851802117985
4.38,2,0.104454685099846,-0.274544511246071,0.0299691763054292,0.0249743135878577,-0.00202439446190781,-0.00798567664621926,0.0927254046245715,-0.263120415865556,-0.0159204891099785,-0.157689138462477,-1.62645344401379,-0.146783857743054,-0.360108238980275,-0.464491714224677,0.0304981638030132,-0.00739565212968332,0.00167851802117985
4.41,2,0.0489720348724835,-0.187271746981211,0.0245775729646697,0.0250251777703177,0.000152592547379986,-0.00813826919359925,0.0640380057171341,-0.206966358429721,-0.0284127323221534,-0.122114729249957,-1.17389446699423,-0.218217515589872,-0.441429893897315,-0.490320546077863,0.0244656717632578,-0.00854518265327921,0.00167851802117985
4.44,2,0.0174057232378104,-0.106601153599658,0.0178329823704744,0.0250353506068097,0.000152592547379986,-0.00833155308694723,0.0620441297647023,-0.17652923164566,-0.0338653726818649,-0.102247179581083,-0.801772108116906,-0.162002421135085,-0.499689728486994,-0.51702424186936,0.0158797977640105,-0.00854518265327921,0.00167851802117985
4.47,2,0.00383515935748365,-0.0454115421002838,0.010549231442203,0.0251777703176977,0.000152592547379986,-0.00842310861537523,0.0611896114993744,-0.15357931251971,-0.032400484227017,-0.0879950356557919,-0.503646961882382,-0.0481582079531236,-0.537980285042879,-0.54175440738141,0.0076398002054913,-0.00854518265327921,0.00167851802117985
4.5,2,0.000722271390931934,-0.00969471317687511,0.00371308531957966,0.0251777703176977,0.000152592547379986,-0.00841293577888323,0.0486973682871995,-0.136204107791375,-0.0251167332987457,-0.0833460493789483,-0.28568376720481,0.0225938698487299,-0.545701467940306,-0.54633218380281,0.00189214758751183,-0.00854518265327921,0.00167851802117985
4.53,2,-0.00206508580787581,-0.00778221991637928,0.000152592547379986,0.0251777703176977,0.000152592547379986,-0.00852483698029522,0.0342926318145288,-0.125298827071952,-0.0203151544745221,-0.0783308409883928,-0.131433047476628,-0.000610370189519944,-0.522558264921008,-0.5202795495468,0.00136316008992787,-0.00854518265327921,0.00167851802117985
4.56,2,-0.00419120863470361,-0.0064699240089114,0.000152592547379986,0.0251777703176977,0.000152592547379986,-0.00842310861537523,0.0234687337870418,-0.128472752057456,-0.0185654265978983,-0.0714438306833094,0.0209967345194861,-0.04396699931842,-0.525599943032116,-0.521215450504064,0.00138350576291187,-0.00854518265327921,0.00167851802117985
4.59,2,-0.0054526403597115,-0.0032451348409477,0.000152592547379986,0.0251777703176977,0.000152592547379986,-0.00850449130731122,0.00507624540950753,-0.13571581163976,-0.0177922910245064,-0.0643635364848781,0.173395998006124,-0.0521256141850032,-0.510869675791701,-0.505213578702149,0.00141402427238787,-0.00854518265327921,0.00167851802117985
4.62,2,-0.00501520839055554,5.08641824599953e-05,0.000152592547379986,0.0252896715191097,0.000152592547379986,-0.00852483698029522,-0.00859604683573921,-0.139907020274463,-0.0153915016123946,-0.0705689667449975,0.326690471104058,-0.0155339213232826,-0.457523321227658,-0.452284310434278,0.000610370189519944,-0.00854518265327921,0.00167851802117985
4.65,2,-0.00265511032441176,0.00165817234819585,0.000152592547379986,0.0252388073366497,0.000152592547379986,-0.00857570116275521,-0.032278410189113,-0.141331217383343,-0.0149032054607786,-0.0672526220486058,0.497054963835566,0.0227769809055859,-0.382590207627593,-0.379721467736849,0.000427259132663961,-0.00854518265327921,0.00167851802117985
4.68,2,0.00499486271757154,0.0130212307097588,-0.000722271390931934,0.0250556962797937,0.000152592547379986,-0.0086570838546912,-0.0811894080426445,-0.137343465478479,-0.0133976256599628,-0.0779341003652048,0.32090212714011,0.0129703665272988,-0.34827723014008,-0.353180537329224,-0.00208543148085981,-0.00854518265327921,0.00167851802117985
4.71,2,0.0117903174942269,0.011363058361563,-0.00337738171534369,0.0247403383485417,0.000152592547379986,-0.00879950356557919,-0.065360474461094,-0.155451114434238,-0.0169377727591784,-0.0823694570757164,0.370138655761386,0.0444959868160039,-0.327799310281686,-0.339508245083977,-0.00320444349497971,-0.00854518265327921,0.00167851802117985
4.74,2,0.0152490819015066,0.00253303628650777,-0.00192266609698782,0.0232551042207099,-0.00704977568895535,-0.00860621967223121,-0.0824508397676524,-0.158258817306029,-0.0165308592994985,-0.0914436272265796,0.30278430534786,0.0898770104068117,-0.307992797631764,-0.323160496841334,-0.00179041922259184,-0.00643940549943541,0.00167851802117985
4.77,2,0.0207017222612181,0.0101423179825231,-0.00316375214901171,0.022268339080986,-0.000478123315123956,-0.00694804732403536,-0.0878627887813959,-0.152806176946318,-0.0173446862188584,-0.097608366140731,0.28690450758385,0.146183660390027,-0.289834284493545,-0.310403759880367,-0.00392671488591164,-0.00723288674581133,0.00157678965625985
4.8,2,0.0263781650237536,0.0125736259041108,-0.00442518387401959,0.0224514501378419,0.000152592547379986,-0.00727357809177933,-0.0847702464878282,-0.150283313496302,-0.0193792535172582,-0.108055869218014,0.244524470758182,0.175705231889808,-0.274391918698691,-0.300729392376476,-0.00530004781233151,-0.0076296273689993,0.00138350576291187
4.83,2,0.0336313974425489,0.0186569821263263,-0.00597145502080345,0.0225836970122379,0.000152592547379986,-0.00740582496617532,-0.0837529628386283,-0.143365784681743,-0.0210882900479141,-0.109734387239194,0.206620481988993,0.159855952635273,-0.260780663472396,-0.294330678223009,-0.00697856583351136,-0.0076296273689993,0.00155644398327586
4.86,2,0.0390738649657684,0.0149337239702546,-0.00698873867000336,0.0225836970122379,0.000152592547379986,-0.00728375092827133,-0.0782596311329488,-0.137994527013967,-0.0229600919624419,-0.0950753298542233,0.159184545426801,0.105115919471826,-0.249671926023133,-0.288664408296965,-0.0076092816960153,-0.0076296273689993,0.00167851802117985
4.89,2,0.0413118889940082,0.00479140598773156,-0.00673441775770338,0.0225836970122379,0.000152592547379986,-0.00745668914863531,-0.0633665985086622,-0.136244799137343,-0.0230821660003459,-0.0727764722637613,0.0961638233588672,0.0397249265012563,-0.249600716167689,-0.290810876796777,-0.00641905982645141,-0.0076296273689993,0.00167851802117985
4.92,2,0.0407218644774723,-0.00358083844518367,-0.00626646727907142,0.0225023143203019,0.000152592547379986,-0.00744651631214331,-0.0374869024730166,-0.136163416445407,-0.0224311044648579,-0.0479140598773156,0.0910061952574236,-0.02137312946969,-0.251431826736249,-0.292062135685293,-0.00512710959196753,-0.0076296273689993,0.00167851802117985
4.95,2,0.0393587043875444,-0.00446587521998759,-0.00472019613228757,0.0224311044648579,0.000152592547379986,-0.00750755333109531,-0.0248725852229377,-0.150405387534206,-0.021210364085818,-0.0232449313842179,0.108574683879106,-0.0748619037446211,-0.240129805393638,-0.279417299925738,-0.00408948026978362,-0.0076296273689993,0.00167851802117985
4.98,2,0.0390942106387524,-4.06913459679963e-05,-0.00464898627684357,0.0223497217729219,0.000152592547379986,-0.00776187424339529,-0.0173446862188584,-0.151015757723726,-0.0193792535172582,-0.00364187546413566,0.134556108279672,-0.101636809391563,-0.216589861751152,-0.255602689697968,-0.00518814661091952,-0.0076296273689993,0.00167851802117985
5.01,2,0.0378632974232205,0.000152592547379986,-0.00496434420809554,0.022115746533606,0.000152592547379986,-0.00774152857041129,-0.011240984323659,-0.140842921231727,-0.0226345611946979,0.011393576871039,0.179652292448703,-0.076255582344025,-0.189530116682435,-0.227322204250211,-0.00503555406353954,-0.0076296273689993,0.00167851802117985
5.04,2,0.0354421623381247,0.000152592547379986,-0.00481175166071556,0.021891944130782,0.000152592547379986,-0.00769066438795129,-0.00375377666554765,-0.150161239458398,-0.0230821660003459,0.0287687815993734,0.313598030538855,0.00401827041433963,-0.154321929583626,-0.189672536393323,-0.00473036896877956,-0.0076296273689993,0.00167851802117985
5.07,2,0.032929471724601,0.000152592547379986,-0.00452691223893958,0.021352783796706,-0.00187180191452783,-0.0075787631865393,-0.0942920214443393,-0.15093437503179,0.00690735597806736,-0.000315357931251971,0.360677917823827,0.0569475386822108,-0.12732322153386,-0.160212001912493,-0.00411999877925962,-0.00747703482161931,0.00167851802117985
5.1,2,0.0301624601987772,-0.00297046825566373,-0.00418103579821162,0.0207831049531541,0.00186162907803583,-0.0033061718598997,-0.246436964018677,-0.133803318379264,0.0177312540055544,0.0416577654347362,0.0313119907223731,-0.187424339528591,-0.116682434563229,-0.146743166397087,-0.00374360382905566,-0.00675476343068738,0.00167851802117985
5.13,2,0.021444339325134,-0.0188553524379203,-0.00097659230323191,0.021362956633198,0.000386567786695964,-0.00552385021515549,-0.0596840316985585,-0.165562913907285,-0.00534073915829951,0.0182755007578763,0.12711976480402,-0.111987670522172,-0.112191127252012,-0.133548997466964,3.05185094759972e-05,-0.00738547929319132,0.00167851802117985
5.16,2,0.021556240526546,0.00499486271757154,-0.0011190120141199,0.0203049816380301,-0.0010884935046439,-0.00363678904588967,-0.0482904548275196,-0.188329721976379,-0.00487278867966755,0.0259509058910896,0.158691162856939,-0.0602994883063245,-0.101713105665253,-0.123193049918109,-0.00301624601987772,-0.00614947965941343,0.00167851802117985
5.19,2,0.0200608335622222,-0.00410473952452162,-0.00274666585283975,0.0202490310373241,-0.000457777642139958,-0.00351471500798568,-0.0549231442203029,-0.182246365754163,-0.00298064109215573,0.0246080914741457,0.0888851588488418,-0.106753746147038,-0.0946735028127893,-0.114642780846583,-0.00204474013489181,-0.0065563931190934,0.00167851802117985
5.22,2,0.0189926857305623,-0.000172938220363984,-0.0021566413363038,0.021429080070396,0.00192266609698782,-0.00482701091545356,-0.0583819086275826,-0.168553727835933,0.00468967762281157,-0.00681580044963937,0.114632608010091,-0.0769625944802189,-0.0885596280810979,-0.107465844701478,-0.0022176783552558,-0.00823999755851924,0.00167851802117985
5.25,2,0.0165308592994985,-0.00165308592994985,0.000101728364919991,0.0211188085573901,-0.00117496261482589,-0.00622068951485743,-0.054495885087639,-0.152175461083814,0.0011291848506119,0.00125125888851588,0.114942879523097,-0.0361695201473027,-0.0891547390158798,-0.105604215623442,-0.00146488845484787,-0.00717184972685934,0.00167851802117985
5.28,2,0.0150405387534206,0.00011190120141199,0.000152592547379986,0.0204728334401481,0.000783308409883928,-0.00347402366201768,-0.0454420606097598,-0.142653686127303,-0.00135298725343588,0.010355947548855,0.125080111087374,0.032380138554033,-0.104663228247932,-0.119617297891171,-0.00167851802117985,-0.00663777581102939,0.00167851802117985
5.31,2,0.0120293791517889,-0.00638345489872941,0.000274666585283975,0.0203355001475061,-2.03456729839981e-05,-0.00357066560869167,-0.0425326293730481,-0.138157292397839,0.00116987619657989,0.0469120354828537,0.120904161707409,-0.000203456729839981,-0.116748558000427,-0.128701640878526,-0.000701925717947935,-0.00664286222927539,0.00167851802117985
5.34,2,0.010452589495529,-0.00199896237067782,0.000457777642139958,0.02139856156092,0.000940987375509913,-0.0053814305042675,-0.0361237423830887,-0.143996500544247,0.00428276416313161,0.0743380026652832,0.110126041444136,-0.0676239305805638,-0.120080161951557,-0.130466628009888,-0.000518814661091952,-0.00772626931567329,0.00167851802117985
5.37,2,0.00841802219712923,-0.00414034445224362,0.000457777642139958,0.0204372285124261,-0.000696839299701936,-0.00384024577572965,-0.0394807784254484,-0.142429883724479,0.0124006876837469,0.0807977538377026,0.0917488123213396,-0.140537736136967,-0.127547023936684,-0.135904009114861,-0.000366222113711966,-0.00637328206223741,0.00167851802117985
5.4,2,0.0011342712688579,-0.0205491297138381,0.0010732342499059,0.0192622658976002,-0.00684631895911537,-0.00306202378409172,-0.10971404156621,-0.194453769544562,0.0312814722128971,-0.00884528132979319,0.032405570645263,-0.130186875006358,-0.127012950020854,-0.12800988799707,0.00246182643106377,-0.00492365286212755,0.0132806380403048
5.43,4,-0.00694296090578936,-0.0248980173141677,0.00531022064882351,0.00994394767092909,-0.0495111952065594,0.00204982655313781,-0.0672933133945738,-0.233110548214159,-0.0126651814325388,-0.0274056215094455,0.136239712719097,0.139952798038677,-0.122140161341187,-0.115009002960295,0.00530513423057751,0.00536108483128351,0.155593534145126
5.46,4,-0.00482192449720756,0.00426241849014761,0.00160222174748985,-0.02223782057151,-0.122430087181209,0.0286161890519934,-0.0637328206223741,-0.128533789076408,-0.0192775251523382,-0.0195827102470982,0.189662363556831,-0.0399232968128503,-0.121555223242897,-0.116519669179357,0.000269580167037975,0.0561133660898668,0.288577939186783
5.49,4,-0.00162765383871985,0.00273649301634775,0.000152592547379986,-0.0487228003784295,-0.0659861039053519,0.0620899075289163,-0.0203965371664581,-0.200455743074842,0.00859604683573921,-0.0312814722128971,0.359787794630777,-0.106545202998952,-0.1082644123661,-0.106423128961048,0.000574765261797947,0.0599485254473505,0.43399863683991
5.52,4,0.0197861669769382,0.0578478347117527,-0.0161646371857865,-0.0594856613869645,-0.032212286751915,0.0407066052227343,-0.0246894741660817,-0.169571011485132,0.00519831944741152,0.00987782423373109,0.32130904059979,-0.0182042909024323,-0.0882951343323059,-0.107999918617308,-0.0332041383098849,0.0390280872015544,0.584083580024618
5.55,4,0.0384431491032645,0.0475732698548336,-0.0517644784895372,-0.0667694123152359,-0.0205949074780521,0.0368663594470046,0.0124820703756829,-0.176895453759372,0.00271614734336375,0.0256508072145756,0.273237301756849,-0.0259865108188116,-0.0684835352641377,-0.106824956002482,-0.0444756411430199,0.0307219662058372,0.661890519933673
5.58,4,0.0510472935168513,0.0333109530930509,-0.0228532771792759,-0.0686157821385337,-0.00114953052359589,0.0235348572242398,-0.0366120385347046,-0.165176346120589,-0.00145471561835587,0.0345520391450748,0.187714265368613,0.0233314004943999,-0.0570034892829168,-0.107989745780816,-0.0243130792158778,0.0133671071504868,0.721477909685558
5.61,4,0.0612964262825404,0.0261797947121596,-0.0240180669576098,-0.0687734611041597,0.000152592547379986,0.0155288349050366,-0.0100202439446191,-0.157261879329814,-0.000172938220363984,0.0301624601987772,0.154560991241188,-0.0347707551296528,-0.0455285297199418,-0.10676391898353,-0.0207017222612181,0.0123599963377789,0.740765607674388
5.64,4,0.0667541530604979,0.0118971322773929,-0.0150863165176346,-0.0685750907925657,0.000152592547379986,0.0134739219336528,-0.0191147597684662,-0.157994323557237,-0.00641905982645141,0.0115003916542049,0.0735801263466292,-0.0131992553483688,-0.0404675435651723,-0.10714540035198,-0.011052786848557,0.0123599963377789,0.752072715435245
5.67,4,0.0680817082227037,0.000844345428835922,-0.00392671488591164,-0.0661590421257159,0.00795515813674327,0.011118910285755,-0.0245267087822097,-0.158075706249173,-0.00206508580787581,0.00156153040152186,0.0624612160608743,-0.0255185603401797,-0.0469832453382977,-0.114942879523097,-0.0010935799228899,0.00908942940560117,0.764071576077558
5.7,4,0.0711386455885495,0.00737530645669932,-0.00257372763247576,-0.0641855118462681,0.00769575080619729,0.00842310861537523,-0.0244249804172898,-0.157282225002798,-0.000986765139723909,0.000900296029541917,0.076062298450677,-0.0235806349884538,-0.0526952930285551,-0.123747469506923,-0.00494908495335754,0.00894700969471318,0.773013499354025
5.73,4,0.0722271390931934,0.00160222174748985,-0.00352997426272368,-0.0613879818109684,0.00813318277535325,0.00555945514287749,-0.0190333770765302,-0.160028890855637,-0.000681580044963937,0.00706503494369335,0.0413881852676982,-0.0160883409120965,-0.0555487736645609,-0.127709789320556,-0.00178533280434584,0.00800602231920326,0.78174179306416
5.76,4,0.0727306944995473,0.000167851802117985,0.000152592547379986,-0.0600858587399925,0.00309254229356772,0.00695822016052736,-0.0229397462894579,-0.160069582201605,-0.000152592547379986,0.0139927365947447,0.0371664581235186,-0.00817387412132125,-0.0619932655822423,-0.134637490971608,-0.000305185094759972,0.010528885769219,0.795113986632893
5.79,4,0.0731020030315053,0.000152592547379986,0.000152592547379986,-0.0572222052674947,0.010447503077283,0.00818404695781325,-0.0234076967680898,-0.158726767784661,-0.000274666585283975,0.0198065126499222,0.0317595955280211,-0.00351980142623168,-0.0685547451195817,-0.141565192622659,-0.000305185094759972,0.0065106153548794,0.799106824956002
5.82,4,0.0734173609627572,0.000152592547379986,0.000152592547379986,-0.0554470452996409,0.00280770287179174,0.00807723217464726,-0.0254015727205217,-0.159621977395957,-0.000498468988107954,0.0199794508702862,0.0344045330159408,-0.00148523412783186,-0.076423434146143,-0.149728893907488,-0.000305185094759972,0.00804671366517126,0.801680552588478
5.85,4,0.0736513362020732,0.000152592547379986,0.000152592547379986,-0.054500971505885,0.00611896114993744,0.00878424431084119,-0.0236925361898658,-0.158523311054821,-0.00314340647602771,0.0179601428266243,0.0519781080558692,-0.00172938220363984,-0.0818964201788385,-0.155476546525468,-0.000305185094759972,0.00833663950519323,0.79960529394411
5.88,4,0.0753807184057131,0.00570696127201147,-0.000946073793755913,-0.0518509475997192,0.00933866389965514,0.00600705994852545,-0.0245267087822097,-0.159194718263293,-0.00265511032441176,0.0146641438032167,0.0888648131758578,0.00199896237067782,-0.0840784936063723,-0.159357483647165,-0.00334177678762169,0.00563575141656748,0.792586036764631
5.91,4,0.0770541500086469,0.00373343099256366,-0.00473545538702556,-0.0477004303109836,0.0154779707225766,0.00254320912299977,-0.021434166488642,-0.158136743268125,-0.00277718436231574,0.0075940224412773,0.124774925992615,0.000961333048493912,-0.0817641733044425,-0.158726767784661,-0.00331634469639169,0.00362661620939767,0.785012359996338
5.94,4,0.0833765678884243,0.0199285866878262,-0.0054729860326955,-0.0401623584704123,0.0293130283516953,-9.15555284279916e-05,-0.0265205847346416,-0.161310668253629,-0.00186162907803583,0.00835698517817723,0.186412142297637,0.00945056510106713,-0.0743227434105452,-0.157617928607033,-0.0122480951363669,-0.00195318460646382,0.790927864416435
5.97,4,0.0940478733685313,0.0335245826593829,-0.0200964384899441,-0.0291960407320373,0.0389212724183884,-0.00394197414064964,-0.0151270078636026,-0.158645385092725,-0.00342824589780368,0.00738547929319132,0.245394248278247,0.00840784936063723,-0.0607267474389884,-0.154688151697338,-0.0247352519302957,-0.00715659047212134,0.794101789401939
6,4,0.105319376201666,0.0354879401023387,-0.0253608813745537,-0.0160018718019145,0.0462711467838577,-0.00687683746859137,-0.0168360443942585,-0.159499903358053,-0.0043844925280516,-0.00520849228390352,0.242128767764316,0.00829086174097924,-0.0463220109663177,-0.151565090894294,-0.0259610787275816,-0.0131789096753848,0.794361196732485
6.03,4,0.118289742728965,0.0399894202500483,-0.0291909543137913,-0.00347911008026368,0.0421358887498601,-0.010493280841497,-0.0103254290393791,-0.160883409120965,-0.0033061718598997,-0.0115003916542049,0.25645212154505,-0.00581377605517747,-0.0311237932472711,-0.149291461938332,-0.0297606331573433,-0.0137231564277067,0.795241147089043
6.06,4,0.135527614164658,0.0552995391705069,-0.0360728782006287,0.00955737988423312,0.0455387025564338,-0.0132806380403048,-0.0126651814325388,-0.163630074973805,-0.00310271513005971,-0.00690735597806736,0.305012156539608,-0.00290943123671173,-0.0145115512558367,-0.149978128401542,-0.0397656178472243,-0.0169021678314564,0.794885097811823
6.09,4,0.15523239844966,0.0637124749493901,-0.0461795912554297,0.0257118442335276,0.0567186498611408,-0.0181534267199723,0.000457777642139958,-0.157831558173365,-0.00371308531957966,-0.00775678782514929,0.315042573320719,0.000971505884985911,0.00415560370698162,-0.150924202195298,-0.0470900601214637,-0.0234992522965178,0.796436455376853
6.12,4,0.175771355327006,0.0668253629159418,-0.0502131209245074,0.0444603818882819,0.0624510432243823,-0.0248268074587237,-0.00141402427238787,-0.15612252164271,-0.00261441897844376,-0.0100151575263731,0.309305093539232,-0.00292977690969573,0.0230363882361319,-0.152541683197526,-0.0501927752515234,-0.0304574724570452,0.798883022553179
6.15,4,0.19655446028016,0.0682851649525437,-0.0512304045737073,0.0619067964720603,0.0598162785729545,-0.0292062135685293,-0.000233975239315978,-0.160496841334269,-0.00332651753288369,-0.00606301054923144,0.315591906491287,-0.00148523412783186,0.0416628518529822,-0.154667806024354,-0.0508540096235033,-0.0312458672851751,0.798755862097029
6.18,4,0.220837020986562,0.0805739514348786,-0.0592313404746645,0.0801924700664286,0.0624408703878903,-0.0332855210018209,-0.00210577715384381,-0.164138716798405,-0.000356049277219967,-0.00292977690969573,0.34499649037141,-0.00817896053956725,0.0615354879401023,-0.159098076316619,-0.0593178095848465,-0.0365967792799666,0.794829147211117
6.21,4,0.249031037324137,0.0943734041362753,-0.0692363251645456,0.0997650074770348,0.0688294117048657,-0.0381786553544725,0.00363170262764367,-0.158197780287077,-0.00043743196915596,0.0142979216895047,0.386033712780134,-0.0149947609892066,0.0834986419263283,-0.165288247322001,-0.0699687693919696,-0.0413474939217302,0.793303221737317
6.24,4,0.278939176610614,0.100273649301635,-0.075746940519425,0.120670186468093,0.0699840286467076,-0.043753369752088,0.00930814539017914,-0.163223161514125,-0.00127160456149988,0.0211798455763421,0.39623706778161,-0.0161544643492945,0.10696737571337,-0.171737825657928,-0.075884273812067,-0.0466119368063397,0.792535172582171
6.27,4,0.310703858556881,0.105436363821324,-0.0795668406221707,0.140547908973459,0.0663624988555559,-0.0470646280302337,0.00973540452284311,-0.163243507187109,0.000600197353027945,0.032471694082461,0.409202347890662,-0.022247993408002,0.13126519567451,-0.179219946897793,-0.0793379518011007,-0.0484074424471775,0.790653197831151
6.3,4,0.345220292774234,0.115833002716147,-0.0855179499699901,0.160644347463403,0.0678019552191738,-0.0520747500025432,0.0189316487116103,-0.160476495661285,-0.00230923388368379,0.032675150812301,0.420768862982065,-0.0190893276772362,0.156168299406924,-0.188787499618519,-0.08643350525427,-0.0527105522832931,0.787072359385968
6.33,4,0.379421369060335,0.115660064495783,-0.087445702485224,0.180608539078951,0.0675578071433658,-0.0566830449334188,0.0202541174555701,-0.160903754793949,-0.00497451704458754,0.0413729260129602,0.434705648976104,-0.0292214728232673,0.181554612872707,-0.197632780948312,-0.08727276426486,-0.0562354401277708,0.786848556983144
6.36,4,0.417681407106744,0.130354726808476,-0.0962452060508032,0.203899248227383,0.0810927660959705,-0.0645008697775201,0.0247301655120497,-0.16940824610126,0.00285856705425174,0.0295317443362733,0.495071260719626,-0.0500554419588814,0.209657073681855,-0.207795444603819,-0.097679575996175,-0.0641549933367921,0.78283537298705
6.39,4,0.458662678914762,0.139378032776879,-0.104413993753878,0.230862351349427,0.0930255033010854,-0.0732291634876553,0.043590604368216,-0.147923215430158,-0.00572730694499547,0.021225623340556,0.524252042196926,-0.0395672475356304,0.24044516332489,-0.217983540350556,-0.10478021586759,-0.0741345459354432,0.771492660298471
6.42,4,0.500467950478632,0.141392254402295,-0.108020264290292,0.258491775261696,0.0946328114668213,-0.0790327667063407,0.0507115899126153,-0.153803114922534,-0.00534073915829951,0.0365916928617206,0.536606952116459,-0.0406252225307983,0.272245450198879,-0.227988525040437,-0.107384462009542,-0.0796533097323527,0.766792809839167
6.45,4,0.54493341878516,0.150481683807896,-0.114754682047995,0.2872859889523,0.0946277250485753,-0.0844904934842982,0.0408439385153762,-0.15642770673747,-0.00123091321553189,0.0270546586504715,0.576565853857031,-0.0580258593503627,0.30565813165685,-0.239092176071454,-0.114780114139225,-0.0852432833847062,0.757988219855342
6.48,4,0.591601306192206,0.158416496271655,-0.119515569526251,0.313760795922727,0.0885647144993438,-0.087008270516068,0.0447503077283039,-0.157709484135461,-0.0033061718598997,0.0358134708700827,0.61073132521541,-0.0476495661285236,0.341359701325521,-0.249992370372631,-0.119820754621011,-0.0882544429863379,0.740882595294046
6.51,4,0.639952798038677,0.164169235307881,-0.124744407483139,0.339253924171677,0.0854213080233161,-0.0915402691732536,0.0678019552191738,-0.147923215430158,-0.00131229590746788,0.0170547603788364,0.621728161463261,-0.0719473860896634,0.378602455722729,-0.26110619424014,-0.125558234402498,-0.0909197261472416,0.713512578712322
6.54,4,0.686340932442193,0.158045187739697,-0.121611173843603,0.367559841710664,0.100339772738833,-0.101646982228055,0.0742922249010692,-0.149754325998718,-0.0032247891679637,0.0240078941211178,0.609251177505824,-0.0733308918525753,0.415077160964792,-0.271045055492823,-0.121692556535539,-0.100502538122705,0.678518021179846
6.57,4,0.734728029216386,0.166000345876441,-0.126087221900082,0.400952177495651,0.112216559343242,-0.110380362356436,0.0624713888973663,-0.152806176946318,-0.00147506129133986,0.02190720338552,0.67202775149795,-0.0570950448113447,0.453911964272998,-0.280561744031088,-0.127150283313496,-0.112531917274494,0.623793247271137
6.6,4,0.783664459161148,0.167943357646413,-0.12793359172338,0.429939675079602,0.0954669840591652,-0.110161646371858,0.0715862503941974,-0.162836593727429,0.00190232042400382,0.0333618172755109,0.680257576219977,-0.100558488723411,0.494410026347646,-0.289030630410677,-0.128284554582354,-0.11139255958739,0.572817163609729
6.63,4,0.832753481653289,0.168828394421216,-0.131351664784692,0.457131667022716,0.0878729616178879,-0.113828953927224,0.0799076306446526,-0.145217240923287,-0.0033061718598997,0.0153152053387046,0.681686859747103,-0.119998779259621,0.535437075919879,-0.297072257657603,-0.13068025757622,-0.114413892025513,0.530325225582649
6.66,4,0.884624774925993,0.178955453149002,-0.13579210791345,0.481663462223172,0.0800246182643106,-0.113076164026816,0.0771609647918129,-0.142775760165207,0.00239061657561978,0.00316883856725771,0.736813460697246,-0.118432162439853,0.577878149764499,-0.306532995595162,-0.137068798893195,-0.115385397910499,0.496851507105726
6.69,4,0.935967080701112,0.177515996785384,-0.138330230618203,0.501566616819768,0.0622882778405103,-0.113137201045768,0.0952686137475712,-0.140741192866807,-0.0043234555090996,-0.0579699087496567,0.737805312255216,-0.174448886583046,0.622221544033123,-0.313521734265165,-0.137765638192897,-0.113218583737704,0.451419619332458
6.72,4,0.989232052573219,0.183680735699535,-0.141046377961567,0.515508489232053,0.0371664581235186,-0.103045747245705,0.0927254046245715,-0.167292296110925,0.000356049277219967,-0.133955910926644,0.75993631804356,-0.275037893815933,0.666982024597919,-0.321995707063,-0.141102328562273,-0.108737449262978,0.425763725699637
6.75,4,1.04663736889757,0.197307250180568,-0.15004425183874,0.51702424186936,0.00065614795373394,-0.0938545894751834,0.105787326680298,-0.153538621173742,0.010793379518011,-0.184067303486231,0.814945931374045,-0.328038371939248,0.714407788323618,-0.332000691752881,-0.150761436811426,-0.0935850093081454,0.391206600136316
6.78,4,1.10436312957142,0.19762260811182,-0.155120497248248,0.517263303526922,0.000152592547379986,-0.0934375031790114,0.104342783898434,-0.0863775546535641,-0.0119734285510829,-0.15731782993052,0.794437493006175,-0.310719117811619,0.763328959013642,-0.340784936063723,-0.155395163833532,-0.0930814539017914,0.325876644184698
6.81,4,1.1553697317423,0.17670725628427,-0.140074872076581,0.517415896074302,0.000152592547379986,-0.0929492070273954,0.140395316426079,-0.115716015096489,-0.0315459659616891,-0.10559404278695,0.714779096855576,-0.246925260170293,0.808374279000214,-0.346771650339264,-0.139922279529201,-0.0930814539017914,0.261991231014944
6.84,4,1.1987263608712,0.15113783176163,-0.122806482131413,0.516383353170365,-0.00645466475417341,-0.0920794295073295,0.137262082786543,-0.0807418032369966,-0.0333160395112969,0.0550808231859289,0.585685801772108,-0.101763969847713,0.847656687114068,-0.350830612099572,-0.122974333933531,-0.0911028372040976,0.180603452660705
6.87,4,1.22565385906552,0.0946735028127893,-0.0778934090192368,0.513209428184861,-0.0121921445356609,-0.0789819025238807,0.143874426506343,-0.0578732668029827,-0.0508336639505193,0.197505620492162,0.355037079989013,0.0597654143904945,0.875479394919685,-0.349909970397046,-0.0567491683706168,-0.0603859574165064,0.087384665466272
6.9,4,1.25164036988433,0.0952177495651112,-0.000579851680043947,0.511703848384045,0.00313323363953571,-0.0243588569800918,0.144667907752719,-0.142755414492223,-0.0165105136265145,0.353806166773481,0.258629108554338,0.17919960122481,0.892997019358908,-0.358399202449619,0.00307219662058372,-0.0137180700094607,0.032690410067039
6.93,4,1.27743868322804,0.097318440300709,-0.00456251716666158,0.508779157892595,-0.0126295765048168,-0.0160222174748985,0.022003845332194,-0.121189001129185,-0.0463983072400077,0.5164647358623,-6.10370189519944e-05,0.278354238512324,0.901979633981343,-0.375199641916155,-0.00488296151615955,-0.00994394767092909,0.00878933072908719
6.96,4,1.28012939848018,0.0283008311207414,0.00250251777703177,0.504821924497208,-0.0101321451460311,-0.0122735272275969,0.0446892707093519,-0.175084688863796,-0.0225124871567939,0.634530676188442,-0.356613869645273,0.378617714977467,0.889502650023906,-0.390367341125726,0.00635293638925342,-0.00796024455498927,0.00310780154830571
6.99,4,1.2682119205298,-0.0188299203466903,-0.00260424614195176,0.502985727510402,-0.0021312092450738,-0.0380108035523545,0.0706910407829015,-0.189855647450179,-0.00780256558936328,0.657918027283548,-0.533341471602527,0.424619281594287,0.862300485244301,-0.405672373627939,-0.0335194962411369,-0.107379375591296,0.00194809818821782
7.02,4,1.21826837977233,-0.158589434492019,-0.0996022420931628,0.437106438388216,-0.335042369863989,-0.124652851954711,-0.177322712892036,-0.0307117933693452,-0.00658182521032339,0.589927874589272,-1.02862127547024,0.309559414451532,0.818776004313283,-0.399258400219733,-0.0992716249071729,-0.148757388022502,0.00168360443942585
7.05,4,1.12866094953256,-0.300129195023448,-0.0549129713838109,0.288725445315917,-0.512843206071149,0.010533972187465,-0.230424919380271,-0.0614947965941343,0.00475071464176356,0.39008250170395,-2.07646921191036,0.279061250648518,0.719102552364676,-0.409304076255582,-0.0551774651326029,0.0207780185349081,0.00167851802117985
7.08,4,1.01949624113692,-0.367702261421552,-0.0343791009247108,0.170288196457818,-0.365118360952584,0.0285144606870734,0.0011291848506119,-0.214250109357992,-0.00369273964659566,0.157678965625985,-2.11021251055432,0.138167465234331,0.592496515803501,-0.426745404421115,-0.032807397686697,0.0407574694051943,0.00167851802117985
7.11,4,0.895972574032818,-0.419609159621977,-0.0209000925728121,0.0955737988423312,-0.225241859187597,0.0272937203080335,0.123813592944121,-0.1691030610065,0.0150659708446506,0.308654032003744,-1.94569739880571,0.103615426089256,0.473240353607796,-0.422503331603951,-0.00637328206223741,0.0314188055055391,0.00167851802117985
7.14,4,0.800617491175064,-0.332051555935341,-0.0141453291421247,0.0577766248563087,-0.0991393780327769,0.0173446862188584,0.102409944964955,-0.259214046652628,0.00334686320586769,0.125217444380016,-2.04940946684164,-0.0285958433790094,0.350561031932534,-0.449817397584969,-0.0124464654479609,0.00926236762596515,0.00167851802117985
7.17,4,0.706600136316009,-0.314615314188055,-0.0121056754254789,0.0491551459293395,-0.0127669097974588,-0.00345367798903368,0.04300057985168,-0.267331970173243,-0.00503555406353954,0.0715506454664754,-2.0587379579048,-0.113493250322988,0.226564327931557,-0.479812005981628,-0.00952177495651112,-0.0194504633727022,0.00167851802117985
7.2,4,0.596280810978525,-0.361715547146011,0.00774661498865729,0.0480361339152196,-0.00503046764529354,-0.0132094281848608,0.0289417198197373,-0.234514399650054,0.00157678965625985,0.0362407300027467,-1.99850459303568,-0.0472629983418277,0.107099622587766,-0.488931953896705,0.010645873388877,-0.0248522395499537,0.00167851802117985
7.23,4,0.492177088737653,-0.345586514887946,0.0173243405458744,0.0443077893409019,-0.0128177739799188,-0.0184535253964863,0.0864385916725161,-0.272621845149083,0.00210577715384381,-0.0371868037965026,-1.77371542507197,-0.250617999816889,-0.00721762749107334,-0.49926246935433,0.0194708090456862,-0.0193894263537502,0.00167851802117985
7.26,4,0.401109856461277,-0.304172897529018,0.0209407839187801,0.0373241370891446,-0.0256965849787896,-0.0162358470412305,0.10788293099765,-0.253964863022757,-0.00859604683573921,-0.0254219183935057,-1.52812789290038,-0.315184993031607,-0.107765943377992,-0.508758812219611,0.0211544134851121,-0.011007009084343,0.00167851802117985
7.29,4,0.322082176173182,-0.263603625598926,0.0201218705811742,0.0309559414451532,-0.0184077476322723,-0.0126804406872768,0.087028616189052,-0.204626606036561,-0.0204982655313781,-0.0706452630186875,-1.24186427401552,-0.364431694489374,-0.188833277382733,-0.510834070863979,0.0208848333180741,-0.00896735536769718,0.00167851802117985
7.32,4,0.257728812524796,-0.217983540350556,0.0186773277993103,0.0279905596077354,-0.00818404695781325,-0.0116326385286009,0.10330515457625,-0.195979695018362,-0.0242622150334178,-0.10595009206417,-0.899405906348867,-0.321014028341522,-0.252535579495631,-0.510218614256213,0.0185196488336843,-0.0115970336008789,0.00167851802117985
7.35,4,0.206233914202297,-0.175394960376802,0.0153660695211646,0.0267494735557115,-0.00404370250556963,-0.0120751569160029,0.0780968657490768,-0.160883409120965,-0.0298165837580493,-0.0638904995880001,-0.579902544226407,-0.0997599210587888,-0.295475122328359,-0.501617481002228,0.0151422671183406,-0.0137180700094607,0.00167851802117985
7.38,4,0.169108147424746,-0.127719962157048,0.0117648854029969,0.0249895728425957,-0.00359609769992167,-0.0116275521103549,0.0661132643615019,-0.14920499282815,-0.0236925361898658,-0.0589159825434126,-0.334142073834447,0.0950905891089613,-0.322972299366232,-0.492004150517289,0.00957772555721712,-0.010681478316599,0.00167851802117985
7.41,4,0.143630278430535,-0.0881934059673859,0.00531530706706951,0.0229651783806879,-0.0076194545325073,-0.010650959807123,0.0507726269315673,-0.147251808221686,-0.0177515996785384,-0.0689209672332936,-0.135797194331695,0.178299305195268,-0.336461480554623,-0.48000020345673,0.00362661620939767,-0.00934375031790114,0.00167851802117985
7.44,4,0.121692556535539,-0.075894446648559,0.00266019674265776,0.0203304137292601,-0.00771609647918129,-0.00911994791507716,0.0262764366588336,-0.152195806756798,-0.0123599963377789,-0.0834376049073763,-0.0235908078249458,0.151865189570808,-0.340474664550717,-0.462075665557827,0.00283822138126774,-0.00776187424339529,0.00167851802117985
7.47,4,0.104337697480188,-0.0602587969603565,0.00210069073559781,0.0191300190232042,-0.00689209672332937,-0.00972014526810511,0.0283516953032014,-0.165623950926237,-0.00910468866033916,-0.102944018880785,0.143798130232653,0.112058880377616,-0.337020986561683,-0.441262042095197,0.00195827102470982,-0.00786868902656128,0.00151066621906186
7.5,4,0.0936714784183274,-0.0365866064434746,-0.000208543148085981,0.0180822168645283,-0.00065106153548794,-0.00853500981678721,0.0138859218115787,-0.164810124006877,-0.00922676269824315,-0.134505244097212,0.320637633391319,0.0745160273038931,-0.322779015472884,-0.416394543290506,-0.00118513545131789,-0.0086570838546912,0.00157170323801386
7.53,4,0.0925066886399935,-0.00713624479913734,-0.00449639372946359,0.0182246365754163,0.000152592547379986,-0.0087435529648732,-0.00491348002563555,-0.160354421623381,-0.0155339213232826,-0.167093925799331,0.508931750439975,0.0628325245928322,-0.292545345418663,-0.384960478530229,-0.0065106153548794,-0.00961333048493912,0.00167851802117985
7.56,4,0.0944547868282113,0.00053916033407595,-0.00856552832626321,0.0181737723929563,0.000152592547379986,-0.00917081209753716,-0.0186671549628183,-0.163304544206061,-0.0261747082939136,-0.186132389294107,0.638096255378887,0.0582649210079246,-0.245572272916857,-0.339930417798395,-0.00967945392213711,-0.00961333048493912,0.00167851802117985
7.59,4,0.100492365286213,0.00796533097323527,-0.00927254046245715,0.0180110070090843,0.000152592547379986,-0.00933357748140914,-0.0802535070853806,-0.126092308318328,-0.0341705577766249,-0.187327697581917,0.47885575935138,0.0307677439700512,-0.21462141788995,-0.314996795556505,-0.010625527715893,-0.00926745404421115,0.00167851802117985
7.62,4,0.10640786970631,0.00673441775770338,-0.0116021200191249,0.0178075502792444,-0.000162765383871985,-0.00949634286528113,-0.0516678365428632,-0.138747316914375,-0.0453403322448398,-0.149500005086418,0.382697022410759,0.0426648762474441,-0.198990854619994,-0.305312255216122,-0.0120802433342489,-0.00900296029541917,0.00167851802117985
7.65,4,0.109668263801996,0.000467950478631957,-0.011088391776279,0.0167750073753065,-0.000417086296171962,-0.00477614673299356,-0.0691651153091016,-0.136448255867183,-0.0465407269508957,-0.101275673696097,0.293125197098707,0.0731732128869493,-0.204997914568519,-0.314620400606301,-0.010742515335551,-0.00820947904904324,0.00167851802117985
7.68,4,0.11251157160151,0.000152592547379986,-0.010864589373455,0.0164749086987925,-0.00114953052359589,-0.00385550503046765,-0.0644856105227821,-0.14879807936847,-0.0404777164016643,-0.0613930682292144,0.216488133386232,0.0751263974934131,-0.215364034953866,-0.327753532517472,-0.010986663411359,-0.00830103457747124,0.00167851802117985
7.71,4,0.114734336375011,0.000152592547379986,-0.011057873266803,0.0156610817794326,-0.00551367737866349,-0.00515762810144353,-0.0587074393953266,-0.160964791812901,-0.032542903937905,-0.0374055197810806,0.161030915250099,0.0407218644774723,-0.213563442894782,-0.328196050904874,-0.011032441175573,-0.00585955381939146,0.00167851802117985
7.74,4,0.116428113650929,0.000152592547379986,-0.011271502833135,0.0158035014903205,0.000152592547379986,-0.00626646727907142,-0.0557369711396629,-0.164138716798405,-0.0259509058910896,-0.0259051281268756,0.136946724855291,-0.0492416150395215,-0.204677470219021,-0.32102928759626,-0.0114444410534989,-0.00808740501113926,0.00167851802117985
7.77,4,0.117908261360515,0.000152592547379986,-0.0114851323994669,0.0159154026917325,0.000152592547379986,-0.00711589912615335,-0.0534786014384391,-0.160293384604429,-0.0208034506261381,-0.0191605375326802,0.111092460910876,-0.166234321115757,-0.19858902757856,-0.316426079083631,-0.0114444410534989,-0.00808740501113926,0.00167851802117985
7.8,4,0.119108656066571,0.000152592547379986,-0.0114291817987609,0.0160273038931445,0.000152592547379986,-0.0076245409507533,-0.0487380596331675,-0.155390077415286,-0.0210069073559781,-0.0131941689301228,0.0775780510879849,-0.251452172409233,-0.202383495590075,-0.32138533687348,-0.0114444410534989,-0.00808740501113926,0.00167851802117985
7.83,4,0.119917396567685,0.000152592547379986,-0.0114953052359589,0.0161748100222785,0.000152592547379986,-0.00788394828129927,-0.0405794447665843,-0.154108300017294,-0.022064882351146,0.00285348063600574,0.0342214219590848,-0.27904599139378,-0.205537074902595,-0.325373088778344,-0.0115461694184189,-0.00808740501113926,0.00167851802117985
7.86,4,0.120283618681397,4.57777642139958e-05,-0.0118818730226549,0.0161748100222785,0.000152592547379986,-0.00790938037252927,-0.0292469049144973,-0.166478469191565,-0.0204982655313781,0.021479944252856,-0.010666219061861,-0.285180211798456,-0.205201371298359,-0.325413780124312,-0.0120548112430189,-0.00808740501113926,0.00167851802117985
7.89,4,0.117770928067873,-0.00767031871496729,-0.011057873266803,0.0161748100222785,0.000152592547379986,-0.00798059022797327,-0.021413820815658,-0.178482416252124,-0.0161239458398185,0.0414950000508642,-0.0612964262825404,-0.278481398968474,-0.207358012634663,-0.3250475580106,-0.0100304167811111,-0.00808740501113926,0.00167851802117985
7.92,4,0.116392508723207,-0.000615456607765943,-0.010355947548855,0.0161748100222785,0.000152592547379986,-0.00802128157394126,-5.08641824599953e-05,-0.180313526820683,-0.0146997487309386,0.0561438845993428,-0.0923490096743675,-0.229819635608997,-0.212988677632984,-0.329289630827764,-0.011093478194525,-0.00808740501113926,0.00167851802117985
7.95,4,0.109068066448968,-0.0128686381623788,-0.0101270587277851,0.0161748100222785,0.000152592547379986,-0.00798059022797327,-0.0194199448632262,-0.179906613361003,-0.00556454156112349,0.043387147638376,0.0855026907152521,-0.126132999664296,-0.211813715018159,-0.320815658029929,-0.00855026907152521,-0.00808740501113926,0.00167851802117985
7.98,4,0.097481205684581,-0.0283110039572334,-0.00663777581102939,0.0161748100222785,0.000152592547379986,-0.00804162724692526,-0.0828984445733004,-0.15134128849147,0.00310271513005971,0.00898261462243517,0.00777713349813328,-0.141254921109653,-0.209377320678325,-0.306772057252724,-0.0043946653645436,-0.00808740501113926,0.00167851802117985
8.01,4,0.0811283710236925,-0.0459812209438358,-0.000305185094759972,0.0161595507675405,0.000152592547379986,-0.00797041739148127,-0.0270902635781935,-0.145095166885383,-0.00877915789259519,0.02157658619953,-0.00786360260831528,-0.138701539150161,-0.210282703126113,-0.291309345784885,0.000915555284279916,-0.00808740501113926,0.00167851802117985
8.04,4,0.0703553371786655,-0.0306405835139012,0.000152592547379986,0.0160222174748985,0.000152592547379986,-0.00817387412132125,-0.0372631000701926,-0.138808353933327,0.00116987619657989,0.0297097689748833,0.0388958403271584,-0.0944903917559333,-0.208477024648783,-0.278730633462528,-0.000183111056855983,-0.00808740501113926,0.00167851802117985
8.07,4,0.0631021047598702,-0.0199641916155482,0.00043743196915596,0.0132704652038128,-0.0169784641051464,-0.00569170201727348,-0.103081352173427,-0.308450575273904,-0.0127465641244748,-0.0862046164332001,0.160674865972879,0.0492161829482915,-0.204707988728497,-0.267718537959939,-0.00153101189204586,-0.00369273964659566,0.0911079236223436
8.1,4,0.065665659555854,0.00481175166071556,-0.00366730755536566,-0.00596128218431145,-0.0747143976154871,0.010737428917305,-0.00462864060385957,-0.12808618427076,-0.00741599780266732,-0.0138706625568407,0.346761477502772,-0.10874762209947,-0.185557624032309,-0.251116468804997,-0.00579343038219347,0.0270597450687175,0.293115024262215
8.13,4,0.0922421948912015,0.0752026937671031,-0.0267189550462355,-0.0278990040793074,-0.0678426465651418,0.0278074485508794,-0.0389721366008484,-0.215959145888648,-0.00906399731437117,-0.138152205979593,0.379619739371929,-0.097750785851619,-0.166620888902453,-0.258756269010488,-0.0408744570248522,0.0349131748405408,0.437548956775618
8.16,4,0.120904161707409,0.0786970631021048,-0.0598061057364625,-0.0283364360484634,0.0206661173334961,0.0118717001861629,0.0239773756116418,-0.176590268664612,-0.0011291848506119,-0.097552415540025,0.400367239397361,-0.0411592964466282,-0.139667958616901,-0.260892564673808,-0.0597755872269865,0.00163274025696585,0.653055411440372
8.19,4,0.151249732963042,0.0811283710236925,-0.0626443271177302,-0.00791446679077527,0.0714540035198014,-0.00925728120771915,-0.00127160456149988,-0.160334075950397,0.00283822138126774,-0.0292265592415133,0.379731640573341,-0.0237434003723258,-0.11413922544023,-0.265307575711336,-0.0619729199092583,-0.0223598946094139,0.762718588824122
8.22,4,0.175654367707348,0.0739056571143732,-0.0569577115187028,0.010813725190995,0.0577003285826187,-0.0181279946287423,-0.00851466414380322,-0.157933286538285,-0.00399792474135563,0.0246691284930977,0.307321390423292,0.00346893724377168,-0.0939766635130874,-0.269569994201483,-0.0572120324310027,-0.0234280424410738,0.780653299559516
8.25,4,0.19469791762037,0.0577613656015707,-0.0466933194982757,0.021759697256386,0.032614113793349,-0.0183517970315663,-0.00721254107282734,-0.161595507675405,-0.00591041800185146,0.0137333292641987,0.233720918403678,-0.00942004659159113,-0.0783104953154088,-0.272916857407351,-0.0451267026785078,-0.0159001434369945,0.77701142409538
8.28,4,0.208431246884569,0.0415153457238482,-0.0378327789137445,0.0315764844711651,0.0367544582455926,-0.0169072542497024,0.0171208838160344,-0.151707510605182,-0.0086774295276752,-0.00667338073875139,0.201951150039165,-0.0167241431928465,-0.06513667205827,-0.273527227596871,-0.0340383109022289,-0.0171615751620024,0.763145847956786
8.31,4,0.221696625670136,0.043173518072044,-0.0291350037130853,0.0472833440148116,0.0552791934975229,-0.02137312946969,-0.0162460198777225,-0.163630074973805,-0.00570696127201147,-0.0189621672210863,0.254280220954009,-0.0156865138706626,-0.0521561326944792,-0.273812067018647,-0.0308847315897092,-0.0275276955473495,0.766482538326162
8.34,4,0.242093162836594,0.065370647297586,-0.0448418632567319,0.0630105492314422,0.0549740084027629,-0.0272326832890815,0.000925728120771915,-0.158543656727805,-0.00481175166071556,-0.0097760958688111,0.328602964364554,-0.0131127862381868,-0.0340484837387209,-0.276060263883379,-0.0477919858394116,-0.0302133243812372,0.768862982065289
8.37,4,0.265246538692384,0.0748517309081291,-0.0561540574358348,0.0819828892890204,0.0673645232500178,-0.032827743359681,0.00499486271757154,-0.162490717286701,-0.00302133243812372,-0.00636819564399141,0.34293649098178,-0.00970488601336711,-0.0138655761385947,-0.279000213629566,-0.0562557858007548,-0.0377819147312845,0.772382783491521
8.4,4,0.292245246742149,0.0877610604164759,-0.0637633391318501,0.103203426211331,0.0731325215409813,-0.0402844325083163,0.00186162907803583,-0.161961729789117,-0.00350962858973968,-0.011342712688579,0.378409171829381,-0.0232245857112339,0.0076194545325073,-0.284401989806818,-0.0647297585985901,-0.0440076906643879,0.771568956572161
8.43,4,0.321532843002614,0.0963265887427391,-0.0724000773135573,0.123182877081617,0.065563931190934,-0.0443332214321319,0.0130517492192348,-0.160415458642333,-0.00302133243812372,-0.010427157404299,0.380677714367097,-0.0158696249275185,0.0304676452935372,-0.290841395306253,-0.0724407686595253,-0.0456556901760918,0.773206783247373
8.46,4,0.353241574348176,0.103579821161534,-0.0785953347371848,0.142887661366619,0.0669881282998138,-0.0477309488204596,0.022125919370098,-0.160374767296365,-0.00615456607765943,-0.0175176244392224,0.390687785475224,-0.021952981149734,0.0537329223507391,-0.299254331085136,-0.0785342977182328,-0.0489618620359915,0.775414288766137
8.49,4,0.385814996795556,0.109581794691814,-0.0821354818364004,0.163660593483281,0.0692973621834976,-0.0528275399029511,0.00727357809177933,-0.162002421135085,-0.00473036896877956,-0.0150557980081586,0.444919176814071,-0.0247708568580177,0.0784834335357728,-0.307097588020468,-0.0820032349620044,-0.0533768730735191,0.768964710430209
8.52,4,0.424512466811121,0.129520554216132,-0.0947803175959553,0.184270760216071,0.0705689667449975,-0.0581377605517747,0.0272123376160975,-0.158747113457645,-0.00208543148085981,-0.0257372763247576,0.507085380616677,-0.0688294117048657,0.10732342499059,-0.316965239417707,-0.0967843663848791,-0.0576291187271747,0.767825352743105
8.55,4,0.463789788506729,0.132165491704052,-0.101443525498215,0.209316283659373,0.0897244178594317,-0.0689616585792616,0.0420239875484481,-0.152033041372926,-0.00318409782199571,-0.00710063987141535,0.533799249244667,-0.0250658691162857,0.138645588549455,-0.324889879044974,-0.101036612038535,-0.0684326710816777,0.759646392203538
8.58,4,0.503504542171494,0.134067812128056,-0.101799574775435,0.239773756116418,0.10533972187465,-0.0790022481968647,0.0285144606870734,-0.15073091830195,-0.00607318338572344,0.0246386099836217,0.582832321136102,-0.0289925840021973,0.172185430463576,-0.331064790795618,-0.101189204585915,-0.0797245195877967,0.748262988168991
8.61,4,0.54592527034313,0.142928352712587,-0.108625548061566,0.271350240587583,0.108015177872046,-0.0861028880682801,0.0335601875871049,-0.153620003865678,3.05185094759972e-05,0.0268155969929095,0.652048300627664,-0.0602638833786025,0.209306110822881,-0.336364838607949,-0.108096560563982,-0.08732362844732,0.733919288715272
8.64,4,0.591285948260954,0.153864151941486,-0.115827916297901,0.302641885636972,0.103518784142582,-0.0899583930987477,0.0353912981556647,-0.163019704784285,0.00100711081270791,0.0465814182968637,0.708202358063499,-0.0877407147434919,0.250261950539669,-0.340790022481969,-0.116011027354757,-0.0911994791507716,0.708629617196163
8.67,4,0.640278328806421,0.164952543717765,-0.125736259041108,0.332204148482721,0.097842341380047,-0.0946378978850673,0.0644042278308461,-0.146824549089022,-0.0076601458784753,0.0169275999226864,0.734285510828984,-0.131127862381868,0.293923764763329,-0.346100243130792,-0.12656025879696,-0.0943734041362753,0.668396048870306
8.7,4,0.688060141809341,0.162551754305653,-0.122989593188269,0.363424583676667,0.110568559831538,-0.105024363943398,0.0770592364268929,-0.147638376008382,-0.0114037497075309,0.0251981159906817,0.745272174240343,-0.0796024455498927,0.337819554226305,-0.349976093834244,-0.123640654723757,-0.103294981739758,0.636799218726157
8.73,4,0.738954842778812,0.17347738069806,-0.132735170547604,0.400179041922259,0.122735272275969,-0.114017151402326,0.0681071403139337,-0.135349589526048,-0.00151575263730786,0.054383983886227,0.802819910275582,-0.0689921770887376,0.384919787184261,-0.353851944537695,-0.132887763094984,-0.116865545620085,0.571499781284015
8.76,4,0.788669494715211,0.1706289864803,-0.13052766502884,0.432874538407544,0.108920560319834,-0.115075126397493,0.0749839777825251,-0.14808598081403,-0.00700908434298736,0.021444339325134,0.811914426099429,-0.166010518712933,0.433200069175288,-0.355235450300607,-0.130863368633076,-0.116356903795485,0.513372193568733
8.79,4,0.838719850255847,0.17159540594704,-0.133691417177852,0.463342183701081,0.0999379456973988,-0.118208360037029,0.0851161229285562,-0.144789981790623,-0.00810775068412325,0.0147506129133986,0.819015065970845,-0.1298155664744,0.48211106702882,-0.356405326497187,-0.133030182805872,-0.119378236233609,0.467197688731549
8.82,4,0.89262571082695,0.185247352519303,-0.139876501764987,0.491114027324239,0.0892361217078158,-0.118289742728965,0.0766930143131809,-0.154637287514878,0.00393688772240364,0.0374258654540646,0.872686951302632,-0.14706869716483,0.532995595161799,-0.359436831771803,-0.141076896471043,-0.120853297524949,0.433271279030732
8.85,4,0.947487818028301,0.188136438083031,-0.144973092847479,0.512609230831833,0.0634378083641062,-0.111534979298278,0.098178044984283,-0.15744499038667,-0.00945056510106713,-0.0458998382518998,0.876949369792779,-0.187515895057019,0.585528122806482,-0.361746065655487,-0.144515315205339,-0.117119866532385,0.387910601112908
8.88,4,1.00745668914864,0.205796482233141,-0.155847855057426,0.517949969990132,0.00792463962726727,-0.0985951312804549,0.118442335276345,-0.182063254697307,0.0150049338256986,-0.0632241787977742,0.923724071982991,-0.231432030192979,0.639230526647745,-0.367992187261574,-0.155858027893918,-0.0969471317687511,0.372356334116642
8.91,4,1.0727256080813,0.223649810276599,-0.17073071484522,0.518814661091952,0.00193283893347982,-0.0946480707215593,0.102572710348827,-0.109022288684754,0.00621560309661143,-0.115044607888017,0.949217200231941,-0.32502212591937,0.696178065329956,-0.376333913185013,-0.172144739117608,-0.0947396262499873,0.320586769208859
8.94,4,1.13201289915667,0.203629668060345,-0.160720643737093,0.519119846186712,0.00128177739799188,-0.0939461450036114,0.120721050650553,-0.0713014109724214,-0.0188502660196743,-0.117597989847509,0.862788781395917,-0.305154576250496,0.750602740562151,-0.381166010518713,-0.160273038931445,-0.0943123671173233,0.251614937793105
8.97,4,1.18562374746951,0.184708192185227,-0.145990376496679,0.517726167587308,-0.00728375092827133,-0.0911384421318196,0.144199957274087,-0.102715130059715,-0.0318714967294331,-0.00129195023448388,0.773410239977213,-0.24334442172511,0.799422182887254,-0.385957416506444,-0.145868302458775,-0.0908434298735516,0.187281919817703
9,4,1.22947884558652,0.151687164932198,-0.110436312957142,0.515915402691733,-0.0065614795373394,-0.0832544938505203,0.143752352468439,-0.0398470005391603,-0.0449334187851599,0.086652221238848,0.582211778110091,-0.0909756767479476,0.840591652170375,-0.38863287250384,-0.0898464918973357,-0.06503494369335,0.106448561052278
9.03,4,1.28085166987111,0.179235206152531,-0.0133264158045188,0.517919451480656,0.0139978230129907,-0.0277820164596494,0.173863948484756,-0.165176346120589,-0.0350047303689688,0.208085370443841,0.467462182480341,0.0886155786818038,0.870957569098992,-0.409660125532802,-0.0208746604815821,-0.0199997965432702,0.0415255185603402
9.06,4,1.32415743481755,0.155929237749362,-0.0278125349691254,0.513016144291513,-0.022014018168686,-0.0170191554511144,0.0248115482039857,-0.0768354340240689,-0.0258491775261696,0.285917742444126,0.121951963866085,0.167790765099033,0.890224921414838,-0.433688365326904,-0.0305490279854732,-0.00782291126234728,0.0100609352905871
9.09,4,1.32839950763471,0.0305185094759972,-0.0147709585863826,0.508194219794305,-0.00883002207505519,-0.00333669036937569,-0.0301624601987772,-0.0808231859289326,-0.0075787631865393,0.30161442915128,-0.462019714957122,0.127587715282652,0.879044974110131,-0.449151076794743,-0.00716167689036734,-0.00908434298735517,0.00335703604235969
9.12,4,1.30881679738762,-0.0467950478631957,-0.021566413363038,0.506617430138045,-0.00660217088330739,-0.0523290709148432,0.152338226467686,-0.242367829421878,-0.00310271513005971,0.270821253089999,-0.695547349467452,0.104546240628274,0.840194911547187,-0.468367564928129,-0.0523290709148432,-0.134657836644592,0.00199387595243182
9.15,4,1.23150324004842,-0.248858099103773,-0.0848618020162562,0.432864365571052,-0.362051250750247,-0.113447472558774,-0.236874497716198,0.0371817173782566,0.00401827041433963,0.143152155115411,-1.28876613666189,0.110873744926298,0.787163914914396,-0.444095177058219,-0.0826237779880164,-0.135949786879075,0.00157678965625985
9.18,4,1.12949003570666,-0.343577379680776,-0.043875443789992,0.284117150385042,-0.509282713298949,0.0127770826339508,-0.116875718456577,-0.113294880011394,0.00999989827163508,0.214779096855576,-2.18266345205034,-0.0889512822860398,0.67431663970865,-0.45493942075869,-0.0461032949817398,0.0227566352326019,0.00155644398327586
9.21,4,1.00873846654663,-0.404054892625711,-0.0278430534786014,0.167953530482905,-0.358785770236315,0.0279346090070294,0.0253812270475377,-0.228003784295175,-0.021617277545498,0.26019063895586,-2.17144281339966,0.252103233944721,0.543646554968922,-0.464847763501897,-0.0238756472467218,0.0398571733756523,0.00167851802117985
9.24,4,0.876786604408907,-0.445733003733431,-0.00694804732403536,0.0970997243161311,-0.207881913714001,0.0259102145451216,-0.0245063631092257,-0.187678660440891,-0.00904365164138717,0.0990630817590869,-2.31271299376405,0.331237729015982,0.41081982889289,-0.465753145949685,4.06913459679963e-05,0.0261543626209296,0.00167851802117985
9.27,4,0.764427625354778,-0.384421318196153,0.00200404878892382,0.0665608691671499,-0.0734783979817092,0.0075685903500473,-0.00448622089297159,-0.252377900530005,0.00076296273689993,0.103793450727866,-2.52685120192063,0.260536515396588,0.263435773796808,-0.500757876318654,0.0011190120141199,-0.00471002329579557,0.00167851802117985
9.3,4,0.650532547990356,-0.378022604042685,0.00616473891415143,0.0605792413098544,-0.0101117994730471,-0.0103050833663951,0.0841395306253243,-0.32517471846675,-0.00232957955666779,0.141687266660563,-2.15128025147252,0.0899787387717317,0.123894975636057,-0.526413769951476,0.00798567664621926,-0.0278328806421094,0.00167851802117985
9.33,4,0.540167444888658,-0.363577176224047,0.0177922910245064,0.0596535131890825,-0.00551367737866349,-0.022217474898526,0.0967131565294351,-0.311868648335215,-0.00114953052359589,0.0957060457167272,-2.13370159001434,0.0726137068798893,-0.00807723217464726,-0.548102257352418,0.0187994018372143,-0.0309050772626932,0.00167851802117985
9.36,4,0.441185745821507,-0.328999704987742,0.0199997965432702,0.054709514653971,-0.0186875006358023,-0.0250862147892697,0.054027934609007,-0.244239631336406,-0.00574765261797947,0.0146590573849707,-1.91982787560656,-0.143304747662791,-0.126448357595548,-0.56760358490758,0.021993672495702,-0.0233161412396619,0.00167851802117985
9.39,4,0.356171351257871,-0.284758039084038,0.0207932777896461,0.0458693197424238,-0.0320342621133051,-0.0207118950977101,0.0956144901882992,-0.248552914009013,-0.0148625141148106,-0.0288501642913093,-1.56307667266864,-0.065635141046378,-0.230099388612527,-0.586189357178462,0.021668141727958,-0.0140690328684347,0.00167851802117985
9.42,4,0.283811965290282,-0.243924273405154,0.0204067100029501,0.0345978169092888,-0.0378429517502365,-0.0134790083518988,0.113600065106154,-0.227352722759687,-0.0136417737357707,-0.0268562883388775,-1.30258084861802,-0.0785241248817408,-0.317026276436659,-0.600746686198513,0.0206305124057741,-0.00515762810144353,0.00167851802117985
9.45,4,0.223120822779015,-0.204372285124261,0.0192571794793542,0.0267749056469415,-0.0224717958108259,-0.00815861486658325,0.102491327656891,-0.196671447899818,-0.0207220679342021,0.000732444227423933,-0.932035279396954,-0.000986765139723909,-0.383383688873969,-0.606443474634032,0.0190333770765302,-0.00499486271757154,0.00167851802117985
9.48,4,0.175084688863796,-0.163233334350617,0.0167241431928465,0.0230719931638539,-0.0087486393831192,-0.00777204707988728,0.0834884690898363,-0.161798964405245,-0.0151066621906186,-0.0378836430962045,-0.663055309712007,0.0296436455376853,-0.43056530452386,-0.605558437859228,0.0160425631478825,-0.00856552832626321,0.00167851802117985
9.51,4,0.140568254646443,-0.119469791762037,0.0119836013875749,0.0202948088015381,-0.00779239275287128,-0.00812809635710725,0.0697754854986216,-0.148045289468062,-0.010630614134139,-0.0507827997680593,-0.412569556769514,0.137689341919207,-0.461745048371838,-0.602242093162837,0.010508540096235,-0.00769066438795129,0.00167851802117985
9.54,4,0.113854386018454,-0.0917996765037996,0.00852483698029522,0.0203355001475061,0.000142419710887987,-0.0086977752006592,0.054027934609007,-0.142796105838191,-0.00822982472202724,-0.086489455854976,-0.230140079958495,0.21362956633198,-0.48027995646026,-0.594052959786777,0.00738547929319132,-0.010528885769219,0.00167851802117985
9.57,4,0.0941496017334513,-0.0673848689230018,0.00574765261797947,0.0202948088015381,0.000152592547379986,-0.00994903408917508,0.054556922106591,-0.155166275012462,-0.00680562761314737,-0.11017181920835,-0.0513423057751193,0.224911242001607,-0.488519954018779,-0.582578000223802,0.00447604805647959,-0.010528885769219,0.00167851802117985
9.6,4,0.0792667419456567,-0.0524002807702872,0.00201422162541581,0.0190435499130222,-0.00704977568895535,-0.0103050833663951,0.0441399375387839,-0.163385926897997,-0.00407930743329162,-0.133192948189744,0.0898261462243517,0.155685089673554,-0.486587115085299,-0.565762301502528,0.00243130792158778,-0.00772118289742729,0.00167851802117985
9.63,4,0.064963733837906,-0.0492568742942595,0.00352997426272368,0.0180160934273303,-0.000478123315123956,-0.00834172592343923,0.0496332692444634,-0.176569922991628,-0.00184128340505183,-0.154911954100162,0.217261268959624,0.0296741640471613,-0.477818130029196,-0.542639444156214,0.00332651753288369,-0.0087079480371512,0.00167851802117985
9.66,4,0.0527766757204911,-0.0416984567807042,0.00310271513005971,0.0181585131382183,0.000152592547379986,-0.0087588122196112,0.0381176183355205,-0.184667500839259,-0.00196335744295582,-0.181890316476943,0.348450168360444,-0.0884121219519639,-0.460066530350658,-0.512792341888689,0.00302133243812372,-0.00961333048493912,0.00167851802117985
9.69,4,0.0408948026978362,-0.0415458642333242,0.00376394950203965,0.0180771304462823,0.000152592547379986,-0.00913520716981516,0.0345367798903368,-0.192114017151402,-0.00778221991637928,-0.2119510483108,0.458947518336538,-0.135217342651652,-0.435733105461796,-0.476546525467696,0.00397757906837163,-0.00949125644703513,0.00167851802117985
9.72,4,0.0303659169286172,-0.0367137668996246,0.0043234555090996,0.0176803898230944,-0.00187180191452783,-0.00904365164138717,-0.154474522131006,-0.22202215643788,-0.0881476282031719,-0.194738608966338,0.413810642821538,0.0408846298613442,-0.407452620014039,-0.437767672760196,0.00422172714417961,-0.00900296029541917,0.00244148075807978
9.75,4,0.0116173792738629,-0.0641193884090701,0.00632750429802342,0.0131636504206468,-0.0189316487116103,-0.00184128340505183,-0.447859126560259,-0.175837478764204,-0.157933286538285,-0.16950997446618,-0.097618538977223,0.573931089205603,-0.399334696493423,-0.410850347402366,0.00989816990671509,-0.000528987497583951,0.0590533158360546
9.78,4,-0.0147404400769066,-0.0880052084922839,0.0166631061738945,0.00645975117241941,-0.0199082410148422,0.00378429517502365,-0.00615456607765943,-0.108249153111362,-0.0386262601601204,-0.14940844955799,-0.10991749829605,0.313913388470107,-0.406811731315043,-0.39183731599882,0.0195521917376222,0.0032349620044557,0.0680054119490137
9.81,4,-0.0300505589973652,-0.053885514898119,0.0161646371857865,0.0032451348409477,-0.00802636799218726,0.00177007354960784,-0.100314340647603,-0.138116601051871,-0.0444044312875759,-0.098045798109887,-0.02213609220659,-0.032695496485285,-0.411053804132206,-0.380789615568509,0.0142724895982747,0.00136316008992787,0.0692363251645456
9.84,4,-0.0441602832117679,-0.0475783562730796,0.0137740206101667,-0.000559506007059949,-0.0163680939156265,0.00398775190486363,-0.0617796360159103,-0.139907020274463,-0.00534073915829951,-0.043926307972452,-0.010416984567807,-0.186081525111647,-0.411643828648742,-0.367300434380118,0.0141300698873867,0.00533056632180751,0.0946785892310353
9.87,2,-0.0554114403719189,-0.0385957416506445,0.0133569343139948,-0.00814844203009125,-0.0293791517888933,0.00722271390931934,-0.0675984984893338,-0.143040253913999,-0.00147506129133986,-0.0674865972879218,0.0149133782972706,-0.032959990234077,-0.411399680572934,-0.355764437798191,0.0133671071504868,0.0137231564277067,0.104709006012146
9.9,2,-0.0635293638925341,-0.0273547573269855,0.0146183660390027,-0.0192673523158462,-0.0364492731508326,0.0145573290200507,-0.065726696574806,-0.145603808709983,-0.00595110934781945,-0.0812300993886125,0.0554317860449029,0.106367178360342,-0.409782199570706,-0.346008687602364,0.0165918963184505,0.0197047842850022,0.122135074922941
9.93,2,-0.0625934629352702,0.0010986663411359,0.00473036896877956,-0.0278837448245694,-0.0261747082939136,0.0161341186763105,-0.053885514898119,-0.146743166397087,-0.0201930804366181,-0.0710369172236295,0.0889818007955158,0.0503351949624114,-0.398581906593015,-0.335764641254921,0.000813826919359925,0.0142419710887987,0.133742281360312
9.96,2,-0.0643024994659261,-0.00520849228390352,0.00514745526495153,-0.0375784580014445,-0.0350454217149368,0.0160832544938505,-0.0679240292570777,-0.150161239458398,-0.0211289813938821,-0.0534073915829951,0.0943327127903073,-0.0914131087171036,-0.387503687653228,-0.323007904293954,0.00500503555406354,0.0188299203466903,0.160303557440921
9.99,2,-0.0639871415346741,-0.000152592547379986,0.00659199804681539,-0.0495722322255114,-0.0407727286599322,0.0207831049531541,-0.053966897590055,-0.15235857214067,-0.0076194545325073,-0.0405184077476323,0.098076316619363,-0.12518692587054,-0.374797814874722,-0.310607216610207,0.0188706116926583,0.0263273008412936,0.192724387340922
10.02,2,-0.0586362295398826,0.0181076489557583,0.033143101290933,-0.0601214636677145,-0.0314340647602771,0.0284941150140894,-0.0581174148787907,-0.154677978860846,-0.00835189875993123,-0.0479445783867916,0.143793043814407,-0.0814335561184525,-0.360545670949431,-0.301685639006724,0.0289315469832453,0.0298776207770012,0.229956968901639
10.05,2,-0.0562964771467228,0.00836207159642323,0.0254829554124577,-0.0675476343068738,-0.0240892768130538,0.0256050294503616,-0.04350922167628,-0.157811212500381,-0.0117699718212429,-0.0499079358297474,0.124678284045941,-0.114047669911802,-0.348206020284636,-0.291716259244565,0.0285653248695334,0.0246894741660817,0.279264707378358
10.08,2,-0.0565101067130548,0.000498468988107954,0.0337127801344849,-0.0767845698416089,-0.0307728303882972,0.0282499669382814,-0.0578325754570147,-0.150975066377758,-0.00835189875993123,-0.0630715862503942,0.129398480178228,-0.098350983204647,-0.335357727795241,-0.278633991515854,0.0340993479211809,0.0307524847153132,0.326069928078046
10.11,2,-0.0567746004618468,0.000152592547379986,0.0346181625822728,-0.0850652587460962,-0.0266426587725456,0.0297453739026053,-0.0521764783674632,-0.155451114434238,-0.00859604683573921,-0.0576494644001587,0.137150181585131,-0.133650725831884,-0.321014028341522,-0.264035971149836,0.0347911008026368,0.0290739666941333,0.362549719738355
10.14,2,-0.0569882300281788,0.000152592547379986,0.0347504094566688,-0.0941597745699433,-0.032746360667745,0.0315561387981811,-0.0553097120069989,-0.151259905799534,-0.0065207881913714,-0.0488906521805475,0.13017161575162,-0.168889431440168,-0.311298969491663,-0.254086937060661,0.0347911008026368,0.0341196935941649,0.391796624652852
10.17,2,-0.0571611682485427,0.000152592547379986,0.0348114464756208,-0.103366191595202,-0.0274361400189215,0.0349335205135248,-0.0442823572496719,-0.158787804803613,-0.00440483820103559,-0.0340790022481969,0.137902971485539,-0.220414848272144,-0.297891170995209,-0.240485854670858,0.0347911008026368,0.0348012736391288,0.417717012034466
10.2,2,-0.0573544521418907,0.000152592547379986,0.0348317921486048,-0.10854416536963,-0.0158187607450585,0.0305083366395052,-0.0448113447472559,-0.156102175969726,-0.00367239397361166,-0.0120242927335429,0.131453393149612,-0.265561896623636,-0.282062237413658,-0.224473810032451,0.0348826563310648,0.0283313496302174,0.438164413383384
10.23,2,-0.0574968718527787,0.000152592547379986,0.0354523351746167,-0.11215552232429,-0.00989816990671509,0.0277006337677135,-0.0440382091738639,-0.155084892320526,-0.00298064109215573,0.0143742179631947,0.118635619169693,-0.324330373037914,-0.270098981699067,-0.212398653116448,0.0352488784447768,0.0267138686279895,0.454878383739738
10.26,2,-0.0602435377056185,-0.00750755333109531,0.0386771243425804,-0.115197200435397,-0.00842310861537523,0.0267036957914975,-0.0409049755343282,-0.154881435590686,-0.00184128340505183,0.0233670054221218,0.113823867508978,-0.348378958505,-0.260261848811304,-0.19983520004883,0.0401521856339203,0.0250760419527777,0.478479364401176
10.29,2,-0.0606097598193304,-0.000915555284279916,0.0384940132857245,-0.117343668935209,-0.00703960285246335,0.0254626097394737,-0.0374869024730166,-0.156916002889086,0.00340790022481969,0.0161646371857865,0.130212307097588,-0.294717246009705,-0.249427777947325,-0.188655252744123,0.0377920875677765,0.0254015727205217,0.508977528204189
10.32,2,-0.0608742535681224,0.000152592547379986,0.0371715445417646,-0.118076113162633,-0.00454725791192358,0.0231737215287739,-0.0348419649850968,-0.155695262510046,0.00442518387401959,-0.00490330718914355,0.141321044546851,-0.115400657165237,-0.233517461673839,-0.1724092328664,0.0372325815607166,0.02223782057151,0.547359640288502
10.35,2,-0.0612506485183264,0.000152592547379986,0.0372529272337006,-0.119683421328369,-0.00298064109215573,0.0239672027751498,-0.0378938159326965,-0.157119459618926,0.000152592547379986,-0.0126651814325388,0.152195806756798,-0.0298877936134933,-0.219906206447544,-0.158411409853409,0.0372631000701926,0.0247708568580177,0.593381552578305
10.38,2,-0.0615761792860703,0.000152592547379986,0.0377412233853165,-0.119073051138849,0.0021769870092878,0.0226142155217139,-0.0366730755536566,-0.157119459618926,-0.000661234371979939,-0.0136417737357707,0.152083905555386,-0.0342010762861008,-0.210048727886797,-0.148228400524918,0.0376903592028565,0.021515549180578,0.658742027039399
10.41,2,-0.0636514379304381,-0.00614439324116743,0.0396944079917803,-0.116875718456577,0.00596128218431145,0.0192673523158462,-0.0343536688334808,-0.157607755770541,0.000559506007059949,-0.0152592547379986,0.15225684377575,-0.0236925361898658,-0.199357076733706,-0.135430972217984,0.0412915433210242,0.0167648345388145,0.74336985381634
10.44,2,-0.064638203070162,-0.0021973326822718,0.0422783084607481,-0.113203324482966,0.0154321929583626,0.0169072542497024,-0.0292672505874813,-0.158299508651997,0.000640888698995941,-0.0137943662831507,0.157149978128402,-0.0186468092898343,-0.187821080151779,-0.122969247515285,0.0411389507736442,0.0132552059490748,0.834223456526383
10.47,2,-0.064699240089114,0.000101728364919991,0.0395519882808924,-0.104739524521622,0.032186854660685,0.0064902696818954,-0.0314238919237851,-0.158991261533453,0.00308236945707572,0.00169886369416384,0.166447950682089,-0.0126855271055228,-0.174576047039196,-0.109724214402702,0.0396740623187963,0.0032553076774397,0.898983733634449
10.5,2,-0.064699240089114,0.000152592547379986,0.0396537166458123,-0.0958382925911232,0.0290434481846573,0.00168869085767184,-0.0350861130609048,-0.158584348073773,0.00409965310627562,0.0241910051779738,0.168024740338349,-0.00742617063915932,-0.167617826878669,-0.102765994242175,0.0396740623187963,0.0010681478316599,0.931465600553402
10.53,2,-0.064699240089114,0.000152592547379986,0.0396740623187963,-0.087415183975748,0.0288501642913093,0.00204474013489181,-0.0279651275165054,-0.158421582689901,0.00186162907803583,0.0388093712169764,0.170395011240984,-0.00153609831029186,-0.158726767784661,-0.0938749351481674,0.0396740623187963,0.00127160456149988,0.943744214199245
10.56,2,-0.064699240089114,0.000152592547379986,0.0397350993377483,-0.0778018534908088,0.0339772738832769,-0.00254320912299977,-0.0278023621326334,-0.157363607694734,-0.000376394950203965,0.043671987060152,0.181513921526739,0.00182093773206783,-0.147190771202734,-0.0823389385662404,0.0396740623187963,-0.00355031993570767,0.942340362763349
10.59,2,-0.064699240089114,0.000152592547379986,0.0396740623187963,-0.0676493626717938,0.0331125827814569,-0.00442518387401959,-0.0276395967487615,-0.157404299040702,-0.00224819686473179,0.0404065065462203,0.189550462355419,0.00374360382905566,-0.138289539272235,-0.0734275337992492,0.0396740623187963,-0.0054221218502355,0.938749351481674
