time,Mode,Knee_Angle,Knee_Velocity,Knee_Current,Ankle_Angle,Ankle_Velocity,Ankle_Current,Acc_X,Acc_Y,Acc_Z,Gyro_X,Gyro_Z,Gyro_Y,Shank_Angle,Thigh_Angle,Knee_Ref_Torque,Ankle_Ref_Torque,Filtered_Vertical_Load
0,1,0.0159916989654225,0.000152592547379986,-0.00903347880489517,0.0593585009308145,0.000152592547379986,-0.0517593920712912,0.00890123193049918,-0.160781680756045,-0.0193792535172582,0.0453911964272998,0.00158696249275185,-0.0043336283455916,0.0523494165878272,0.0364289274778486,-0.00900296029541917,-0.0520340586565752,0.609424115726188
0.03,1,0.0145064648375907,-0.00614439324116743,-0.00847397279783522,0.0592567725658946,0.000152592547379986,-0.0521052685120192,0.00829086174097924,-0.162612791324605,-0.0203965371664581,0.0491754916023235,0.00991851557969909,-0.00315357931251971,0.0517390463983072,0.0373444827621286,-0.00599180069378745,-0.0520340586565752,0.545396282845546
0.06,1,0.0158594520910265,0.00423189998067161,-0.00622577593310343,0.0581072420422987,-0.00620543026011943,-0.0520137129835912,0.00833155308694723,-0.164077679779453,-0.0211696727398501,0.0553605761894589,0.0191757967874182,0.000132246874395988,0.0521968240404472,0.0364899644968006,-0.0101830093284911,-0.0480056154057436,0.454369741915138
0.09,1,0.0150151066621906,-0.00423189998067161,-0.00896226894945118,0.0568458103172908,-0.00132246874395988,-0.0440280363373719,0.00589007232886746,-0.167129530727053,-0.0145776746930347,0.0687378561764377,0.0191452782779422,-0.0165715506454665,0.0530106509598071,0.0380972726625365,-0.00606301054923144,-0.0475783562730796,0.328725038402458
0.12,1,0.0174260689107944,0.00621560309661143,-0.00999989827163508,0.0532039348531551,-0.0197759941404462,-0.043753369752088,-0.00257372763247576,-0.17856379894406,-0.00363170262764367,0.0816573585212765,0.00167851802117985,-0.105258339182714,0.0536006754763431,0.0362458164209927,-0.0135603910438348,-0.0365306558427686,0.176763206884976
0.15,1,0.0176803898230944,0.000569678843551948,-0.0115970336008789,0.0404777164016643,-0.0480666524246956,-0.0237128818628498,-0.0102237006744591,-0.176285083569852,0.00279753003529974,0.0779747917111728,-0.0340179652292449,-0.253812270475377,0.0522883795688752,0.0346893724377168,-0.010650959807123,-0.00415051728873562,0.0554012675354269
0.18,1,0.0180364391003143,0.000152592547379986,-0.010508540096235,0.0295927813552253,-0.0263273008412936,0.00172938220363984,-0.0471714428133997,-0.153335164443902,0.0139062674845627,-0.0334686320586769,-0.128228603981648,-0.382152775658437,0.0243130792158778,0.00638854131697541,-0.010528885769219,-0.00257372763247576,0.0140690328684347
0.21,1,0.0161951556952625,-0.00691752881455936,-0.00917589851578316,0.0288399914548173,-4.06913459679963e-05,-0.00928779971719515,-0.054495885087639,-0.142877488530127,-0.00021362956633198,-0.0922777998189235,-0.196712139245786,-0.414705852432834,-0.0227057710501419,-0.0388297168899604,-0.00627664011556342,-0.0247606840215257,0.00420138147119561
0.24,1,0.0161137730033265,-0.00145471561835587,-0.00641905982645141,0.0247199926755577,-0.0183416241950743,-0.0150557980081586,-0.0509150466424553,-0.137262082786543,-0.00924710837122715,-0.134067812128056,-0.251645456302581,-0.382040874457025,-0.065177363404238,-0.0811995808791365,-0.00805688650166326,-0.0115156509089429,0.0021668141727958
0.27,1,0.0164596494440545,0.000132246874395988,-0.0087181208736432,0.0195420189011302,-0.0128279468164108,-0.00288908556372773,-0.0411898149561042,-0.139825637582527,-0.011322367015595,-0.143101290932951,-0.295866776533301,-0.347382020528784,-0.110741498051902,-0.127150283313496,-0.00957263913897112,-0.00525935646636352,0.00172938220363984
0.3,1,0.0164799951170385,0.000152592547379986,-0.00933866389965514,0.0185450809249143,-0.00457777642139958,-0.0076398002054913,-0.032197027497177,-0.145318969288207,-0.0173039948728904,-0.158035014903205,-0.332183802809737,-0.273954486729535,-0.146539709667247,-0.162989186274809,-0.00961333048493912,-0.0146183660390027,0.00167851802117985
0.33,1,0.0173955504013184,0.00246182643106377,-0.00965402183090711,0.0167851802117985,-0.00298064109215573,-0.00347911008026368,0.0802738527583646,-0.189469079663483,-0.0817997782321645,-0.138391267637155,-0.166244493952249,-0.0258186590166936,-0.159103162734865,-0.17642750328074,-0.0102542191839351,-0.0101728364919991,0.00168869085767184
0.36,1,0.02162745038199,0.0117496261482589,-0.0145268105105747,0.0135502182073428,-0.0164901679535305,-0.00286873989074374,0.145380006307159,-0.181086662394075,-0.119724112674337,-0.0404980620746483,0.0102135278379671,0.15190079449853,-0.162500890123193,-0.184057130649739,-0.0181076489557583,-0.00299081392864772,0.011363058361563
0.39,1,0.0252489801731417,0.0086977752006592,-0.0210272530289621,0.0086977752006592,-0.0136824650817387,0.00202439446190781,0.0250963876257617,-0.146132796207567,-0.032400484227017,-0.0436109500412,0.00458794925789158,-0.065299437442142,-0.161005483158869,-0.186162907803583,-0.0208136234626301,0.00373343099256366,0.064851832636494
0.42,1,0.0238959929197058,-0.00419120863470361,-0.0135705638803268,0.00748720765811131,-0.000823999755851924,-0.00179041922259184,-0.0150659708446506,-0.171971800897244,-0.00513728242845953,0.0141198970508947,0.0235195979695018,-0.010345774712363,-0.158899706005025,-0.182724489069287,-0.011322367015595,-0.00450656656595559,0.132877590258492
0.45,1,0.0257067578152816,0.00512710959196753,-0.0136519465722627,0.00753807184057131,0.000152592547379986,-0.00419120863470361,-0.000946073793755913,-0.156346324045534,-0.0122175766268909,0.00800602231920326,0.0194402905362102,-0.0303455712556332,-0.145980203660187,-0.171615751620024,-0.0167037975198625,-0.00610370189519944,0.183395896277759
0.48,1,0.0272632017985575,0.00347911008026368,-0.0192266609698782,0.00747703482161931,0.000152592547379986,-0.00505589973652353,-0.00289925840021973,-0.161921038443149,-0.0165715506454665,0.0248624123864457,-0.00384533219397565,-0.00595110934781945,-0.134301787367372,-0.161473433637501,-0.0184535253964863,-0.00610370189519944,0.245643482772301
0.51,1,0.0276395967487615,0.000254320912299977,-0.0166936246833705,0.00742617063915932,0.000152592547379986,-0.00558488723410749,-0.00489313435265155,-0.160985137485885,-0.0180364391003143,0.0181178217922503,-0.00363170262764367,-0.00577817112745547,-0.119449446089053,-0.147028005818862,-0.0163680939156265,-0.00610370189519944,0.311604154586423
0.54,1,0.0280159916989654,0.000152592547379986,-0.0163172297331665,0.00732444227423933,0.000152592547379986,-0.00584938098289946,-0.00595110934781945,-0.162409334594765,-0.0194199448632262,-0.00898261462243517,-0.00804671366517126,-0.0102033550014751,-0.10696737571337,-0.134881639047416,-0.0164494766075625,-0.00610370189519944,0.363943398337759
0.57,1,0.0283516953032014,0.000152592547379986,-0.0167241431928465,0.00725323241879533,0.000152592547379986,-0.00605283771273944,-0.00859604683573921,-0.161188594215725,-0.0185654265978983,-0.0283415224667094,0.00569678843551948,-0.00986765139723909,-0.097923724071983,-0.12620420951974,-0.0169377727591784,-0.00598162785729545,0.395814895067192
0.6,1,0.0286263618884854,0.000152592547379986,-0.0168462172307505,0.00717184972685934,0.000152592547379986,-0.00589007232886746,-0.00818913337605925,-0.159764397106845,-0.0142928352712587,-0.0297657195755893,0.0229397462894579,-0.0086876023641672,-0.0898566647338277,-0.118381298257393,-0.0169377727591784,-0.00564592425305948,0.415845210119938
0.63,1,0.0289620654927213,0.000152592547379986,-0.0168767357402264,0.00717184972685934,0.000152592547379986,-0.00576799829096347,-0.00696839299701936,-0.160171310566525,-0.0142928352712587,-0.0196946114485102,0.0389212724183884,-0.00362152979115167,-0.0811894080426445,-0.110059918006938,-0.0171819208349864,-0.00564592425305948,0.439995523951944
0.66,1,0.0298877936134933,0.000925728120771915,-0.0174769330932544,0.00724305958230333,0.000152592547379986,-0.00571713410850347,-0.00379446801151565,-0.160781680756045,-0.0144962920010987,-0.0148726869513026,0.0374970753095085,0.000783308409883928,-0.0721762749107334,-0.101962340159307,-0.0174565874202704,-0.00582903530991546,0.471795810825933
0.69,1,0.032634459466333,0.0075685903500473,-0.02122053692231,0.00744651631214331,0.000152592547379986,-0.00570696127201147,-0.00257372763247576,-0.160334075950397,-0.0161239458398185,-0.0191656239509262,0.0317697683645131,-0.0032654805139317,-0.065411338643554,-0.097964415417951,-0.0234076967680898,-0.00610370189519944,0.503148492894274
0.72,1,0.0337432986439609,0.00303150527461572,-0.021352783796706,0.00747703482161931,0.000152592547379986,-0.00604266487624744,-0.00298064109215573,-0.161351359599597,-0.0135196996978668,-0.0173039948728904,0.00768049155145929,-0.00343841873429568,-0.0569678843551948,-0.0906399731437117,-0.0206915494247261,-0.00610370189519944,0.521591845454268
0.75,1,0.0359914955086927,0.00620543026011943,-0.0241096224860378,0.00753807184057131,0.000152592547379986,-0.00610370189519944,-0.00273649301634775,-0.160659606718141,-0.0138045391196427,-0.0134586626789148,0.0022176783552558,-0.00708029419843135,-0.0536210211493271,-0.0895006154566078,-0.0251777703176977,-0.00610370189519944,0.532181768242439
0.78,1,0.0374869024730166,0.00443535671051159,-0.0228074994150619,0.00776187424339529,0.000152592547379986,-0.00600197353027945,-0.00570696127201147,-0.160374767296365,-0.0142928352712587,-0.011291848506119,-0.00161748100222785,-0.00511693675547553,-0.0485447757398195,-0.0859299498479161,-0.0236213263344218,-0.00610370189519944,0.534084088666443
0.81,1,0.0391450748212124,0.00476597389650156,-0.0263781650237536,0.00778221991637928,0.000152592547379986,-0.00606301054923144,-0.00363170262764367,-0.160049236528621,-0.0150252794986826,-0.0101423179825231,0.0114546138899909,-0.00688192388683737,-0.0460320851262958,-0.0851059500920642,-0.0265154983163956,-0.00610370189519944,0.534460483616647
0.84,1,0.0426547034109521,0.010589922788171,-0.0278430534786014,0.00778221991637928,0.000152592547379986,-0.00622577593310343,-0.00627664011556342,-0.161025828831853,-0.0146183660390027,-0.00850449130731122,0.0244249804172898,-0.00304167811110772,-0.0424105553351441,-0.0849635303811762,-0.0295113986632893,-0.00622577593310343,0.533473718476923
0.87,1,0.0464898627684357,0.0137536749371827,-0.0332346568193609,0.00787377544480728,0.000152592547379986,-0.00628681295205542,-0.00269580167037975,-0.159886471144749,-0.0147404400769066,-0.0101117994730471,0.0312407808669291,-0.0033061718598997,-0.0405896176030763,-0.087028616189052,-0.0348012736391288,-0.0065614795373394,0.541571296324554
0.9,1,0.0509150466424553,0.0148116499323506,-0.0366018656982126,0.00960315764844712,0.00774152857041129,-0.00687683746859137,-0.0021261228268278,-0.159031952879421,-0.0143335266172267,-0.010762861008535,0.0267342143009735,-0.00519831944741152,-0.0387686798710084,-0.0896023438215277,-0.0374869024730166,-0.0129398480178228,0.54836675110121
0.93,1,0.0527970213934751,0.00589007232886746,-0.0370189519943846,0.0101626636555071,0.000396740623187963,-0.00939970091860714,0.000274666585283975,-0.159642323068941,-0.0120548112430189,-0.00681580044963937,0.00467950478631957,-0.00504572690003154,-0.0358795943072807,-0.0886054058453118,-0.0353912981556647,-0.00904365164138717,0.544460381888282
0.96,1,0.0552791934975229,0.00828068890448724,-0.0352997426272368,0.00995920692566708,0.000152592547379986,-0.00907417015086317,-0.00289925840021973,-0.160089927874589,-0.0135603910438348,-0.00378429517502365,-0.00733461511073133,-0.000478123315123956,-0.033071891435489,-0.0882900479140599,-0.0372834457431766,-0.00854518265327921,0.537146112450535
0.99,1,0.0552385021515549,0.000844345428835922,-0.0349436933500168,0.00991851557969909,0.000152592547379986,-0.00878933072908719,-0.00277718436231574,-0.160903754793949,-0.0136010823898027,-0.00642923266294341,-0.021515549180578,-0.00231940672017579,-0.0305185094759972,-0.0856451104261401,-0.0338246813358969,-0.00854518265327921,0.533697520879747
1.02,1,0.0551266009501429,0.000152592547379986,-0.0331736198004089,0.00991851557969909,0.000152592547379986,-0.00850449130731122,-0.00318409782199571,-0.160537532680237,-0.0130314035462508,-0.00554419588813949,-0.0134484898424228,-3.05185094759972e-05,-0.0304066082745852,-0.0854009623503321,-0.033021027253029,-0.00817896053956725,0.532680237230547
1.05,1,0.054892625710827,0.000152592547379986,-0.033061718598997,0.00990834274320709,0.000152592547379986,-0.00845362712485122,-0.00334686320586769,-0.160171310566525,-0.0123803420107629,-0.00148523412783186,-0.0138960946480707,0.0032349620044557,-0.0293181147699413,-0.0841293577888323,-0.032959990234077,-0.00808740501113926,0.531652780744855
1.08,1,0.054678996144495,0.000152592547379986,-0.032959990234077,0.00965402183090711,0.000152592547379986,-0.00822982472202724,-0.00232957955666779,-0.159805088452813,-0.0125024160486668,0.00459812209438358,-0.0163680939156265,0.00210577715384381,-0.0282906582842494,-0.0828780989003164,-0.032959990234077,-0.00808740501113926,0.531317077140619
1.11,1,0.054465366578163,0.000152592547379986,-0.033021027253029,0.00938952808211514,0.000152592547379986,-0.00833155308694723,-0.00269580167037975,-0.160659606718141,-0.0124617247026989,0.00658182521032339,-0.021495203507594,0.00223802402823979,-0.0273954486729535,-0.0817794325591805,-0.032807397686697,-0.00790429395428327,0.530157373780531
1.14,1,0.054282255521307,0.000152592547379986,-0.032624286629841,0.0086672566911832,-0.00454725791192358,-0.00801619515569526,-0.00139367859940387,-0.159560940377005,-0.0128279468164108,0.010879848628193,-0.0298420158492793,0.00600197353027945,-0.0267138686279895,-0.0809045686208685,-0.032502212591937,-0.00598162785729545,0.526601967426578
1.17,1,0.0535192927844071,-0.000620543026011943,-0.032603940956857,0.00818913337605925,-0.000905382447787917,0.000386567786695964,-0.0010681478316599,-0.162124495172989,-0.0137231564277067,0.00839259010589923,-0.053895687734611,0.00484227017019155,-0.0255338195949176,-0.0789513840144047,-0.032502212591937,-0.00580868963693147,0.526851201920632
1.2,1,0.0509760836614073,-0.00726340525528733,-0.0276701152582375,0.00702943001597135,-0.00195318460646382,-0.000457777642139958,-0.00147506129133986,-0.162002421135085,-0.0151066621906186,0.000905382447787917,-0.0775678782514929,0.00709046703492335,-0.0290739666941333,-0.0799584948271126,-0.0265205847346416,-0.00277718436231574,0.519811599068168
1.23,1,0.0474562822351756,-0.00987782423373109,-0.0267138686279895,0.0065513067008474,-0.00454725791192358,-0.00407930743329162,-0.00147506129133986,-0.161188594215725,-0.0138859218115787,-0.0021973326822718,-0.100833155308695,0.0147404400769066,-0.0342214219590848,-0.0815963215023245,-0.0249031037324137,-0.00399792474135563,0.511551255836665
1.26,1,0.0395214697714164,-0.021912289803766,-0.0178228095339824,0.00488296151615955,-0.00298064109215573,-0.00134281441694388,-0.000254320912299977,-0.161392050945565,-0.0132755516220588,-0.00774152857041129,-0.132796207566556,0.022075055187638,-0.0412813704845322,-0.0807112847275206,-0.0137841934466587,0.000233975239315978,0.489435509303059
1.29,1,0.0293893246253853,-0.0270495722322255,-0.00923693553473515,0.00374360382905566,-0.00670389924822738,-0.00259407330545976,-0.00228888821069979,-0.158747113457645,-0.0138859218115787,-0.0136824650817387,-0.186366364533423,0.0365001373332926,-0.0507929726045513,-0.0801212602109846,-0.00465915911333557,0.000905382447787917,0.462396109907325
1.32,1,0.0164799951170385,-0.0297758924120813,0.00224819686473179,0.000915555284279916,-0.00845362712485122,0.00372325815607166,-0.0298776207770012,-0.158625039419741,-0.0133976256599628,-0.0174057232378104,-0.141402427238787,0.0584225999735506,-0.0616575619780063,-0.0780256558936328,0.00370291248308766,0.00589007232886746,0.454064556820378
1.35,1,0.00292977690969573,-0.0308338674072492,0.00988799707022309,0.000254320912299977,-9.15555284279916e-05,0.00174972787662384,-0.021535894853562,-0.154230374055198,-0.0154321929583626,-0.0125125888851588,-0.0529496139408551,0.0243537705618458,-0.0667948444064659,-0.0696330657877336,0.0141809340698467,0.000498468988107954,0.452660705384482
1.38,1,-0.00184128340505183,-0.00451673940244758,0.00903347880489517,-0.00204474013489181,-0.011057873266803,0.00382498652099165,-0.0285348063600574,-0.155939410585854,-0.0142521439252907,-0.0199896237067782,0.0158797977640105,0.0301828058717612,-0.0731528672139653,-0.0710979542425815,0.0043743196915596,0.00741599780266732,0.461266925056714
1.41,1,-0.00481175166071556,1.01728364919991e-05,0.00278735719880774,-0.00611387473169144,-0.0125736259041108,0.00955229346598712,-0.00847397279783522,-0.163630074973805,-0.0125431073946348,-0.0203660186569821,0.0141809340698467,0.00837224443291523,-0.0732545955788853,-0.0682292143518377,0.00292977690969573,0.0157882422355825,0.466973886328725
1.44,1,-0.00716167689036734,0.000152592547379986,0.00403861608732363,-0.00915555284279916,-0.00735496078371532,0.0134790083518988,-0.00599180069378745,-0.163019704784285,-0.010508540096235,-0.0197454756309702,0.00570696127201147,0.00444552954700359,-0.0671102023377178,-0.0597247230445265,0.00413017161575162,0.0142419710887987,0.471348206020285
1.47,1,-0.00916572567929116,0.000152592547379986,0.00484227017019155,-0.00907417015086317,0.000152592547379986,0.011037527593819,-0.0140893785414187,-0.160740989410077,-0.0128686381623788,-0.0197251299579862,0.00890123193049918,0.00158696249275185,-0.0657368694112979,-0.0563371684926908,0.0054628131962035,0.00808740501113926,0.474511958169296
1.5,1,-0.010762861008535,0.000152592547379986,0.00589007232886746,-0.00912503433332316,0.000152592547379986,0.00904365164138717,-0.0118513545131789,-0.159154026917325,-0.0129500208543148,-0.0259407330545976,0.00957263913897112,-0.00164799951170385,-0.0660522273425499,-0.0550859096041749,0.00640888698995941,0.00793481246375927,0.476129439171524
1.53,1,-0.0120141198970509,0.000152592547379986,0.00678528194016338,-0.00915555284279916,0.000152592547379986,0.00854518265327921,-0.0118920458591469,-0.160252693258461,-0.0116478977833389,-0.0279244361705374,0.0125939715770948,-0.000315357931251971,-0.065055289366334,-0.0528478855759351,0.00719219539984334,0.00836207159642323,0.47788933988464
1.56,1,-0.0130619220557268,0.000152592547379986,0.00749738049460331,-0.00915555284279916,0.000152592547379986,0.00844345428835922,-0.0136417737357707,-0.159520249031037,-0.0101830093284911,-0.0273954486729535,0.0179855749178543,-0.00210577715384381,-0.065126499221778,-0.0518509475997192,0.00787377544480728,0.00839259010589923,0.477350179550564
1.59,1,-0.0139062674845627,0.000152592547379986,0.00810775068412325,-0.00924710837122715,0.000152592547379986,0.00847397279783522,-0.0120141198970509,-0.159235409609261,-0.00989816990671509,-0.0285246335235654,0.0207627592801701,-0.00740582496617532,-0.064821314127018,-0.0506912442396313,0.00839259010589923,0.00839259010589923,0.48165328938668
1.62,1,-0.0146488845484787,0.000152592547379986,0.0086876023641672,-0.00930814539017914,0.000152592547379986,0.00841293577888323,-0.0121768852809229,-0.159967853836685,-0.010711996826075,-0.0278227078056174,0.0181279946287423,-0.00851466414380322,-0.0638854131697541,-0.0490127262184515,0.00881984923856319,0.00839259010589923,0.486902473016551
1.65,1,-0.0154016744488866,0.000152592547379986,0.00903347880489517,-0.00930814539017914,0.000152592547379986,0.00825017039501124,-0.0118920458591469,-0.159520249031037,-0.00892157760348318,-0.0267036957914975,0.0174158960743024,-0.0102033550014751,-0.0633767713451542,-0.0477614673299356,0.00927762688070314,0.00839259010589923,0.490056052329071
1.68,1,-0.0161137730033265,0.000152592547379986,0.00956246630247912,-0.00930814539017914,0.000152592547379986,0.00847397279783522,-0.0114851323994669,-0.159886471144749,-0.00855535548977121,-0.0253913998840297,0.0136112552262947,-0.0116072064373709,-0.0625019074068422,-0.0461745048371838,0.00983713288776309,0.00839259010589923,0.490045879492579
1.71,1,-0.0167750073753065,0.000152592547379986,0.0100507624540951,-0.00930814539017914,0.000152592547379986,0.00836207159642323,-0.0122989593188269,-0.159764397106845,-0.00969471317687511,-0.0227362895596179,0.0177515996785384,-0.0115766879278949,-0.0622272408215583,-0.0452487767164118,0.0102237006744591,0.00839259010589923,0.497339803257342
1.74,1,-0.0178329823704744,-0.000620543026011943,0.010457675913775,-0.00944039226457513,0.000152592547379986,0.00832138025045523,-0.0120955025889869,-0.159723705760877,-0.00940987375509914,-0.0203355001475061,0.0208237962991221,-0.00768049155145929,-0.0619322285632903,-0.043875443789992,0.010620441297647,0.00839259010589923,0.508438367870113
1.77,1,-0.0205898210598061,-0.00723288674581133,0.0145878475295267,-0.00930814539017914,0.000152592547379986,0.00821965188553524,-0.0115258237454349,-0.159031952879421,-0.00778221991637928,-0.0166427605009105,0.0257372763247576,-0.00554419588813949,-0.0608640807316304,-0.0400708029419843,0.0165206864630065,0.00839259010589923,0.516963204850408
1.8,1,-0.0211188085573901,-0.000386567786695964,0.0143335266172267,-0.00910468866033916,0.000152592547379986,0.00811792352061525,-0.011037527593819,-0.160293384604429,-0.00696839299701936,-0.0120141198970509,0.0384533219397565,-0.00919624418876715,-0.0600807723217465,-0.0387381613615324,0.0134281441694388,0.00820947904904324,0.527919349752291
1.83,1,-0.0231635486922819,-0.00568661559902748,0.0144861191646067,-0.00881984923856319,0.000152592547379986,0.00792463962726727,-0.00949125644703513,-0.159845779798781,-0.00892157760348318,-0.0136824650817387,0.0342519404685609,-0.00719219539984334,-0.0575782545447147,-0.0342214219590848,0.0163579210791345,0.00793481246375927,0.54765465254677
1.86,1,-0.0252489801731417,-0.00418103579821162,0.0182500686666463,-0.00815861486658325,0.000783308409883928,0.00810775068412325,-0.0118513545131789,-0.160171310566525,-0.00900296029541917,-0.0125024160486668,0.0426343577379681,-0.0064902696818954,-0.0560116377249468,-0.0305490279854732,0.0172734763634144,0.0075685903500473,0.568407238990448
1.89,1,-0.0284635965046134,-0.00910468866033916,0.0199896237067782,-0.00574765261797947,0.00735496078371532,0.00483209733369956,-0.00920641702525915,-0.159357483647165,-0.00818913337605925,-0.0115359965819269,0.0420341603849401,-0.00710063987141535,-0.053885514898119,-0.0251879431541897,0.021617277545498,-0.000122074037903989,0.587338887702058
1.92,1,-0.0312916450493891,-0.00795515813674327,0.0231330301828059,-0.00454725791192358,0.00735496078371532,0.00302133243812372,-0.00798567664621926,-0.160374767296365,-0.00737530645669932,-0.010834070863979,0.0515966266874193,-0.00735496078371532,-0.0508743552964873,-0.0193385621712902,0.0231330301828059,-0.00011190120141199,0.61324910224718
1.95,1,-0.0346893724377168,-0.0102033550014751,0.0244554989267658,-0.00289925840021973,0.00423189998067161,0.000691752881455936,-0.00778221991637928,-0.159805088452813,-0.00810775068412325,-0.0123803420107629,0.054556922106591,-0.00586972665588346,-0.0468255663726717,-0.0119327372051149,0.0260729799289936,0.00153609831029186,0.636931465600553
1.98,1,-0.0378327789137445,-0.00964384899441511,0.0269885352132735,0.000417086296171962,0.0119734285510829,-0.00392671488591164,-0.00945056510106713,-0.160537532680237,-0.0076194545325073,-0.0199387595243182,0.0646585487431461,-0.00686666463209937,-0.04294971566922,-0.00490330718914355,0.0278939176610614,-0.00967436750389111,0.654133732108524
2.01,1,-0.0402335683258563,-0.00632750429802342,0.0287077445804214,0.00373343099256366,0.0118411816766869,-0.00710063987141535,-0.00639871415346741,-0.159154026917325,-0.00835189875993123,-0.0248013753674937,0.0631122775963622,-0.00316375214901171,-0.0391043834752444,0.00125125888851588,0.0278125349691254,-0.00895209611295918,0.665374716432183
2.04,1,-0.0438652709535,-0.0115665150914029,0.0302031515447452,0.00708029419843135,0.011037527593819,-0.0100812809635711,-0.00261441897844376,-0.159113335571357,-0.00729392376476333,-0.0314442375967691,0.0481276894436476,-0.00182093773206783,-0.0357270017599007,0.00819930621255125,0.032431002736493,-0.0144149093091627,0.693889177119256
2.07,1,-0.0478326771853796,-0.0118004903307189,0.0350962858973968,0.0100100711081271,0.00910468866033916,-0.0120955025889869,-0.00778221991637928,-0.159805088452813,-0.00635802280749942,-0.0371613717052726,0.0519018117821792,-0.00609352905870744,-0.032715842158269,0.0151778720460626,0.0355438907030447,-0.0154321929583626,0.749687185277871
2.1,1,-0.0510778120263273,-0.00929797255368714,0.0356557919044567,0.0140385143589587,0.0147404400769066,-0.0165410321359905,-0.00721254107282734,-0.160537532680237,-0.00399792474135563,-0.0340891750846889,0.0784223965168208,-0.0133772799869788,-0.0290332753481653,0.02213609220659,0.0359609769992167,-0.0211900184128341,0.824956002482172
2.13,1,-0.0514287748853013,-0.000727357809177933,0.033097323526719,0.0197403892127242,0.0203253273110141,-0.0244860174362417,-0.00641905982645141,-0.161371705272581,-0.00175990071311584,-0.0143436994537187,0.109271523178808,-0.010905280719423,-0.0246894741660817,0.0267952513199255,0.032100385550503,-0.0301166824345632,0.883307392600279
2.16,1,-0.0532395397808771,-0.00582394889166946,0.032904039633371,0.0242622150334178,0.0118869594409009,-0.0307830032247892,-0.00422172714417961,-0.161697236040325,-0.00116987619657989,0.00988799707022309,0.104388561662648,-0.00965402183090711,-0.0196488336842962,0.0336619159520249,0.0347656687114068,-0.0316222622353791,0.918444369843643
2.19,1,-0.0556606748659729,-0.00674459059419538,0.0369630013936786,0.0290739666941333,0.0196284880113122,-0.032314015116835,0.00086469110181992,-0.160171310566525,-0.00239061657561978,0.0292367320780053,0.113569546596678,-0.00930814539017914,-0.0125787123223568,0.043107394634846,0.0370494705038606,-0.0358389029613127,0.924492121138137
2.22,1,-0.0586158838668986,-0.00924710837122715,0.0399283832310963,0.0357422610146387,0.0211086357208981,-0.043427838984344,-0.00458794925789158,-0.160802026429029,-0.0032858261869157,0.054678996144495,0.119108656066571,-0.00408439385153762,-0.00604266487624744,0.0526139103366192,0.0403607287820063,-0.0467441836807357,0.91511785231076
2.25,1,-0.0609759819330424,-0.00729901018300933,0.0409405804620502,0.0396333709728284,0.011357971943317,-0.043743196915596,-0.000132246874395988,-0.160008545182653,-0.00468967762281157,0.0638599810785241,0.122679321675263,-0.00693787448754336,-5.08641824599953e-06,0.0610980559709464,0.0407371237322103,-0.0419019135105441,0.911186051006602
2.28,1,-0.0627409690644042,-0.00503555406353954,0.0418256172368542,0.0449283323669139,0.0201167841629281,-0.0495417137160354,-0.00182093773206783,-0.159784742779829,-0.00572730694499547,0.0779900509659108,0.160985137485885,-0.0098269600512711,0.00633767713451542,0.0693278806929736,0.0417391481266722,-0.0533005767998291,0.904009114861497
2.31,1,-0.0629139072847682,-7.12098554439934e-05,0.0388398897264524,0.0518306019267352,0.0246996470025737,-0.0613422040467544,0.00426241849014761,-0.158564002400789,-0.0065411338643554,0.0937630339467554,0.197810805586922,-0.00749229407635731,0.0167241431928465,0.0798669392986846,0.0386669515060884,-0.0611896114993744,0.902025411745557
2.34,1,-0.0631071911781162,0.000152592547379986,0.0386364329966124,0.0622170679850663,0.0353048290454828,-0.0776797794529049,-0.000315357931251971,-0.161086865850805,-0.00737530645669932,0.103132216355887,0.232327239804275,-0.010569577115187,0.0276141646575315,0.0909705903297016,0.0386059144871364,-0.0793888159835607,0.903347880489517
2.37,1,-0.0631936602882982,0.000152592547379986,0.0387330749432864,0.0724051637318033,0.0350555945514288,-0.086718344676046,0.0100405896176031,-0.161066520177821,-0.0097557501958271,0.115553249712617,0.268232266202785,-0.0152083905555386,0.0406150496943063,0.104083376567888,0.0386059144871364,-0.086570838546912,0.905916521703747
2.4,1,-0.0631733146153142,0.000152592547379986,0.0386364329966124,0.0841090121158483,0.0372376679789626,-0.0996378470208848,0.00381481368449965,-0.165868099002045,-0.0116072064373709,0.115456607765943,0.305012156539608,-0.00949125644703513,0.0563168228197068,0.119754631183813,0.0386059144871364,-0.101240068768375,0.904604225796279
2.43,1,-0.0631071911781162,0.000152592547379986,0.0386466058331044,0.0965554775638091,0.0454573198644978,-0.111255226294748,0.0188502660196743,-0.158869187495549,-0.0128889838353628,0.104617450483718,0.345754366690064,-0.000534073915829951,0.0775577054150009,0.140883612577695,0.0386059144871364,-0.11329996642964,0.899970498774173
2.46,1,-0.0629342529577522,0.000152592547379986,0.0385601367229225,0.10945972065391,0.0367391989908546,-0.124006876837469,0.0076194545325073,-0.17337565233314,-0.011200292977691,0.126295765048168,0.360276090782393,0.00151066621906186,0.0995106865647348,0.162648396252327,0.0384075441755425,-0.123564358450067,0.893953265989156
2.49,1,-0.0617999816888943,0.00366222113711966,0.0379395936969105,0.120253100171921,0.0343231503240048,-0.12882371491643,0.00471002329579557,-0.17805515711946,-0.0140893785414187,0.139255958738975,0.432162439853104,0.00737530645669932,0.120553198848435,0.182576982940153,0.0367900631733146,-0.130415763827428,0.880128381196529
2.52,1,-0.0560268969796848,0.0184331797235023,0.0298318430127873,0.126270332956938,0.0127669097974588,-0.121926531774855,-0.00572730694499547,-0.210364085818049,-0.0235094251330098,0.183655303608305,0.534628335418765,0.0734021017080193,0.149072745953754,0.205287840408541,0.0268766340118615,-0.123279519028291,0.84275846634317
2.55,2,-0.0389009267454044,0.0522782067323832,0.011139255958739,0.126311024302906,-0.0011240984323659,-0.107313252154098,-0.032197027497177,-0.236040325123854,-0.0261747082939136,0.194118065940326,0.803364157027904,0.113889990946176,0.189006215603097,0.228074994150619,0.00120548112430189,-0.110268461155024,0.685084587135431
2.58,2,-0.00355031993570767,0.100853500981679,-0.0144606870733767,0.117623421938739,-0.0452131717886898,-0.0915707876827296,0.0564694153670868,-0.192704041667938,-0.0202134261096021,0.169657480595314,0.687027598905403,0.117684458957691,0.235348572242398,0.239056571143732,-0.0154779707225766,-0.0956958728802352,0.385865860978017
2.61,2,0.0611794386628824,0.196915595975626,-0.0152490819015066,0.0876542456333099,-0.119703767001353,-0.0918200221767835,-0.0234890794600258,-0.243385113071078,-0.011139255958739,0.181534267199723,0.765012563453068,0.15505437381105,0.278710287789544,0.21757154047263,0.0254219183935057,-0.116077150791955,0.156702373322754
2.64,2,0.163584297209591,0.335383159886471,0.0564185511846268,0.0185247352519303,-0.277108066042055,-0.0857417523728141,-0.0400504572690003,-0.266273995178076,0.0087384665466272,0.0292926826787113,0.837076937162389,-0.0574968718527787,0.325362915941852,0.161844742169459,0.0483514918464716,-0.0200862656534522,0.0783206681519008
2.67,2,0.302636799218726,0.469593391725415,-0.0054373811049735,-0.0446841842911059,-0.166809086377555,0.00704468927070935,0.0211900184128341,-0.257728812524796,0.00188197475101983,-0.10709453616952,1.25232703634754,-0.252637307860551,0.387798699911496,0.0852534562211982,-0.00813826919359925,0.0887020477919858,0.0675171157973978
2.7,2,0.424629454430779,0.419756665751111,-0.0133772799869788,-0.0470188502660197,0.032497126173691,0.0441806288847519,-0.128411715038504,-0.0678019552191738,0.0158187607450585,-0.032944730979339,1.02699362163152,-0.368363495793532,0.463591418195135,0.0390179143650624,-0.0140385143589587,0.054139835810419,0.021632536800236
2.73,2,0.538010803552355,0.382864874212877,-0.0171870072532324,-0.0160273038931445,0.126402579831334,0.0342417676320688,-0.0411491236101362,-0.176753034048484,0.00609352905870744,-0.165924049602751,0.527278461053295,-0.467523219499293,0.505030467645293,-0.032761619922483,-0.0198777225053662,0.0229346598712119,0.00573747978148747
2.76,2,0.621651865189571,0.287418235826696,-0.0176040935494044,0.0252896715191097,0.141717785170039,0.0102949105299031,-0.086418245999532,-0.0775678782514929,-0.00350962858973968,-0.19635100355032,0.054343292540259,-0.266436760561947,0.52399263486638,-0.097420168665629,-0.0178991058076724,-0.000834172592343923,0.00249743135878577
2.79,2,0.67866552730898,0.196564633116652,-0.0420341603849401,0.0483260597552416,0.0588040813420006,-0.00352488784447768,-0.0668863999348938,-0.0802128157394126,-0.0155135756502986,-0.19630013936786,-0.543290505691702,-0.113508509577726,0.506602170883307,-0.171814121931618,-0.0635090182195502,-0.0136316008992787,0.00180059205908383
2.82,2,0.667511012095503,-0.032893866796879,-0.0921099480168055,0.0474969735811436,-0.0118259224219489,-0.010498367259743,-0.160008545182653,0.0205186112043621,-0.0195013275551622,-0.173187454858038,-1.41001617481002,-0.0409812718080182,0.445504114912361,-0.221091341898862,-0.0955941445153152,-0.0152846868292286,0.00167851802117985
2.85,2,0.58373770358389,-0.258476516006958,-0.0448011719107639,0.0389009267454044,-0.0240841903948078,-0.0101677500737531,-0.0456048259936318,-0.148920153406374,-0.0171005381430504,-0.23978392895291,-2.22252571184423,-0.0131076998199408,0.312957141839859,-0.270572018595945,-0.0454776655374818,-0.00719728181808934,0.00167851802117985
2.88,2,0.472289193395795,-0.371517075106052,-0.0204524877671641,0.0343536688334808,-0.0125685394858648,-0.00987782423373109,-0.0272123376160975,-0.217322305978576,-0.0158187607450585,-0.220740379039888,-2.59429202144434,0.157648447116509,0.168039999593087,-0.303984700053916,-0.0102796512751651,-0.00859096041749321,0.00167851802117985
2.91,2,0.345723848180588,-0.419807529933571,0.0129144159265928,0.032654805139317,-0.00251777703176977,-0.00935392315439314,0.0840378022604043,-0.350321970274972,-0.0163274025696585,-0.187729524623351,-2.38314462721641,0.191803745638396,0.0157780693990905,-0.329747408469904,0.0158187607450585,-0.00993377483443709,0.00167851802117985
2.94,2,0.227210303048799,-0.394594154688152,0.0276548560034995,0.032792138431959,0.000152592547379986,-0.0101270587277851,0.0984832300790429,-0.336263110243029,-0.0161849828587705,-0.0660267952513199,-2.11014130069887,-0.0131789096753848,-0.120736309905291,-0.347865230262154,0.0309406821904152,-0.0114444410534989,0.00167851802117985
2.97,2,0.13238420768863,-0.319762769453007,0.0315561387981811,0.032807397686697,0.000152592547379986,-0.011007009084343,0.0705079297260455,-0.270180364391003,-0.0143131809442427,-0.197347941526536,-1.70309050772627,-0.0118767866044089,-0.233420819727165,-0.365713471887366,0.0335805332600889,-0.0114444410534989,0.00167851802117985
3,2,0.065101067130548,-0.227785068310597,0.0282957447024954,0.032664977975809,0.000152592547379986,-0.011139255958739,0.0734987436546932,-0.238909065014598,-0.0139876501764987,-0.123589790541297,-1.16018148340302,-0.0455488753929258,-0.317275510930713,-0.382285022532833,0.0285195471053194,-0.0114444410534989,0.00167851802117985
3.03,2,0.0238044373912778,-0.141249834691407,0.02165288247322,0.032502212591937,0.000152592547379986,-0.0115614286731569,0.0612913398642944,-0.189265622933643,-0.0202948088015381,-0.129042430901008,-0.773018585772271,-0.146860154016744,-0.374568926053652,-0.398307240007731,0.0206305124057741,-0.0114444410534989,0.00167851802117985
3.06,2,0.00570696127201147,-0.0624764753156123,0.0137384156824447,0.032502212591937,0.000152592547379986,-0.0115105644906969,0.0528478855759351,-0.160476495661285,-0.0252794986826177,-0.136941638437045,-0.440112511571601,-0.124856308684551,-0.409527878658406,-0.415178889329712,0.010666219061861,-0.0114444410534989,0.00167851802117985
3.09,2,0.000503555406353954,-0.0177719453515224,0.00617491175064343,0.032502212591937,0.000152592547379986,-0.0115461694184189,0.0390128279468164,-0.143182673624887,-0.0261950539668976,-0.127847122613198,-0.252337209184037,-0.0824355805129144,-0.428683329772841,-0.429044465468307,0.0032298755862097,-0.0114444410534989,0.00167851802117985
3.12,2,-0.00373851741080966,-0.0132806380403048,0.000193283893347982,0.032497126173691,0.000152592547379986,-0.0115970336008789,0.0375275938189845,-0.136061688080487,-0.0237739188818018,-0.125609098584958,-0.145140944649597,-0.0313628549048331,-0.4343292540259,-0.430356761375774,0.00244656717632577,-0.0114444410534989,0.00167851802117985
3.15,2,-0.00833663950519323,-0.0146641438032167,0.00341298664306569,0.032283496607359,0.000152592547379986,-0.0114495274717449,0.0506098615476953,-0.140252896715191,-0.0254422640664897,-0.124871567939289,-0.0225328328297779,0.0572069460127567,-0.439461450036114,-0.430901008128096,0.00335703604235969,-0.011032441175573,0.00167851802117985
3.18,2,-0.0130263171280048,-0.0146946623126926,0.00401827041433963,0.032090212714011,0.000152592547379986,-0.011149428795231,0.0623900062054303,-0.14798425244911,-0.0256050294503616,-0.117806532995595,0.136382132429985,0.15001881974751,-0.435773796807764,-0.422523677276935,0.00424715923540961,-0.010986663411359,0.00167851802117985
3.21,2,-0.0187587104912463,-0.0170445875423444,0.00473545538702556,0.0314340647602771,-0.00393180130415764,-0.011149428795231,-0.010996836247851,-0.174433627328308,-0.0634072898546302,-0.0597755872269865,0.236955880408134,0.309035513372194,-0.423383281960509,-0.404390596229947,0.00500503555406354,-0.010554317860449,0.00167851802117985
3.24,2,-0.0309712006998912,-0.0396282845545824,0.00707012136193935,0.0250963876257617,-0.0300709046703492,-0.00568661559902748,-0.124810530920337,-0.239621163569038,-0.0802941984313486,-0.0915453555914996,0.19136631366924,0.52223782057151,-0.4109978535315,-0.379757072664571,0.00992360199794509,-0.00243130792158778,0.065090894294056
3.27,2,-0.043778801843318,-0.0418764814193141,0.0120904161707409,-0.00292977690969573,-0.114586830245877,0.0120904161707409,-0.0934578488519954,-0.151076794742678,-0.0411287779371522,0.0234127831863358,0.160974964649393,-0.115222632526627,-0.400123091321553,-0.356069622892951,0.0131839960936308,0.0270393993957335,0.208944975127415
3.3,2,-0.054139835810419,-0.0344452243619088,0.021200191249326,-0.0443840856145919,-0.138762576169113,0.0557827489038769,-0.0517492192347992,-0.123488062176377,-0.0359406313262327,-0.0138655761385947,0.151585436567278,-0.339411603137303,-0.390962452060508,-0.336578468174281,0.032547990356151,0.0723441267128513,0.278405102694784
3.33,2,-0.0569170201727348,-0.00625120802433342,0.0460880357270018,-0.065538499099704,-0.0498519852290414,0.0581987975707266,-0.0606199326558224,-0.200231940672018,0.021942808313242,-0.0166681925921405,0.274468214972381,-0.25942767621896,-0.378393912574643,-0.321273435672068,0.0405540126753543,0.054887539292581,0.37015900143437
3.36,2,-0.0588803776156906,-0.00488804793440555,0.0356151005584887,-0.0825729138055564,-0.0625375123345642,0.0589261553799046,-0.0561235389263588,-0.156590472121342,0.0065004425183874,-0.0308287809890032,0.277306436353648,-0.021403647979166,-0.359304584897407,-0.30021566413363,0.0381125319172745,0.0608488214768924,0.483799757886491
3.39,2,-0.0594042786950285,-0.000320444349497971,0.0370698161768446,-0.103076265755181,-0.0675272886338898,0.0724712871690013,-0.064668721579638,-0.164403210547197,-0.00143436994537187,-0.0206152531510361,0.293547369813125,-0.0551927243873409,-0.340703553371787,-0.281090731528672,0.0365866064434746,0.0732291634876553,0.592425305948057
3.42,2,-0.0599485254473505,0.000152592547379986,0.0365255694245226,-0.121626433098341,-0.0583208716086306,0.075782545447147,-0.0553300576799829,-0.155471460107222,-0.000600197353027945,-0.0174515010020244,0.301227861364584,-0.0263781650237536,-0.322417879777418,-0.262230292672506,0.0365916928617206,0.076235236671041,0.667495752840765
3.45,2,-0.0605232907091484,0.000152592547379986,0.0368205816827906,-0.136316008992787,-0.0452894680623798,0.0731223487044893,-0.0502436394339834,-0.159703360087893,-0.00363170262764367,-0.00775170140690329,0.309742525508388,-0.0290231025116733,-0.300485244300668,-0.239753410443434,0.0369121372112186,0.0742464471368552,0.720409761853898
3.48,2,-0.0609607226783044,0.000152592547379986,0.0371613717052726,-0.146198919644765,-0.0284076459039074,0.0681478316599017,-0.0509760836614073,-0.154026917325358,-0.00287891272723574,0.0145522426018047,0.327880692973622,-0.0378785566779585,-0.279595324564348,-0.218426058737958,0.0372325815607166,0.0687836339406517,0.76008891059094
3.51,2,-0.0613218583737704,0.000152592547379986,0.0371766309600106,-0.152546769615772,-0.0174464145837784,0.065401165807062,-0.0379955442976165,-0.164606667277037,-0.00253303628650777,-0.00121056754254789,0.334589678640095,-0.0147404400769066,-0.260068564917956,-0.198492385631886,0.0373699148533586,0.065523239844966,0.80189418215481
3.54,2,-0.0616168706320383,0.000152592547379986,0.0377310505488245,-0.154499954222236,0.000223802402823979,0.0589414146346426,-0.0397249265012563,-0.164993235063733,-0.0043844925280516,-0.00352488784447768,0.32380138554033,-0.00783817051708528,-0.240307830032248,-0.178492589088616,0.0376903592028565,0.0574866990162867,0.856522314116845
3.57,2,-0.0619017100538143,0.000152592547379986,0.0378073468225145,-0.15240943632313,0.00726340525528733,0.0500503555406354,-0.0332143111463769,-0.160964791812901,-0.000722271390931934,0.00270597450687175,0.3012075156916,-0.0114698731447289,-0.220028280485448,-0.157887508774071,0.0376903592028565,0.0520289722383292,0.890138452304656
3.6,2,-0.0621967223120823,0.000152592547379986,0.0378632974232205,-0.141885636972157,0.043834752444024,0.0395875932086144,-0.0279651275165054,-0.159215063936277,-0.00161748100222785,0.00456251716666158,0.298048849960835,-0.00823491114027324,-0.192749819432152,-0.13034964039023,0.0379192480239265,0.0310118920458591,0.901882992034669
3.63,2,-0.0628020060833562,-0.000340790022481969,0.0381633960997345,-0.125888851588488,0.0528631448306731,0.0245623137099317,-0.0356557919044567,-0.156610817794326,-0.00228888821069979,0.010966317738375,0.290017395550401,-0.00315866573076571,-0.174794763023774,-0.111768954537594,0.0381481368449965,0.0170496739605904,0.905941953794977
3.66,2,-0.0639718822799361,-0.00264493748791976,0.0422783084607481,-0.113366089866838,0.0399029511398663,0.0200710063987142,-0.0310780154830571,-0.153864151941486,-0.00503555406353954,-0.00342315947955769,0.274605548265023,-0.0134535762606688,-0.160023804437391,-0.0958535518458612,0.0413169754122542,0.0194199448632262,0.907605212561419
3.69,2,-0.0642719809564501,-0.00193792535172582,0.0397198400830103,-0.0990223904131189,0.0535294656208991,0.0167648345388145,-0.0202948088015381,-0.155898719239886,-0.00422172714417961,-0.0097659230323191,0.27769809055859,-0.00239570299386578,-0.141438032166509,-0.0769575080619729,0.0405285805841243,0.00895209611295918,0.905931780958485
3.72,2,-0.0644042278308461,-0.00180567847732983,0.0389212724183884,-0.0826542964974924,0.0520493179113132,0.00249234494053977,-0.0341298664306569,-0.155898719239886,-0.00076296273689993,-0.0116631570380769,0.267164118371125,-0.00583920814640746,-0.128386282947274,-0.0637582527136041,0.0396842351552883,0.00119530828780989,0.910036520483006
3.75,2,-0.0643279315571561,-0.000371308531957966,0.0391857661671804,-0.0700348928291676,0.043671987060152,0.00393688772240364,-0.0194402905362102,-0.161025828831853,-0.0021668141727958,-0.00823491114027324,0.26466668701234,-0.00230923388368379,-0.116361990213731,-0.0517899105807672,0.0391450748212124,0.00350962858973968,0.9094719280577
3.78,2,-0.0646331166519161,-0.000640888698995941,0.0408693706066062,-0.054490798669393,0.0523951943520412,-0.0043132826726076,-0.0265816217535936,-0.160049236528621,-0.00145471561835587,-0.00203965371664581,0.268038982309437,0.00155644398327586,-0.102191228980377,-0.0373648284351126,0.0401165807061983,-0.00782799768059328,0.909609261350342
3.81,2,-0.0645415611234881,0.000152592547379986,0.0395519882808924,-0.0397859635202083,0.0503707998901334,-0.00688192388683737,-0.021434166488642,-0.157790866827397,-0.00249234494053977,0.00281278929003774,0.270460117394533,-0.000274666585283975,-0.0917538987395856,-0.0270139673045035,0.0395062105166784,-0.011398663289285,0.908678446811324
3.84,2,-0.0643686229031241,0.000152592547379986,0.0391145563117364,-0.0259305602181056,0.0449639372946359,-0.010813725190995,-0.0154118472853786,-0.159276100955229,-0.00167851802117985,0.00747703482161931,0.270271919919431,-0.000254320912299977,-0.0777611621448408,-0.0131636504206468,0.0392162846766564,-0.0140842921231727,0.907503484196499
3.87,2,-0.0641651661732841,0.000152592547379986,0.0391247291482284,-0.0127313048697368,0.043926307972452,-0.0143487858719647,-0.0143131809442427,-0.161086865850805,-0.0011291848506119,0.0154779707225766,0.266248563086846,-0.00349945575324768,-0.0632699565619882,0.00102745648569191,0.0392162846766564,-0.0184382661417483,0.906801558478551
3.9,2,-0.0640888698995941,0.000152592547379986,0.0392010254219184,-0.00126651814325388,0.0353709524826807,-0.0174565874202704,-0.0244046347443058,-0.156285287026582,-0.00163782667521185,0.021825820693584,0.2647175511948,-0.00732952869248533,-0.054536576433607,0.00957772555721712,0.0392162846766564,-0.0184077476322723,0.903007090467035
3.93,2,-0.0639515366069521,0.000152592547379986,0.0391196427299824,0.011159601631723,0.0443027029226559,-0.0204728334401481,-0.00314340647602771,-0.159031952879421,-0.000498468988107954,0.0341451256853949,0.272418388419243,-0.00810775068412325,-0.043031098361156,0.0210221666107161,0.0392162846766564,-0.0264392020427056,0.901857559943439
3.96,2,-0.0637429934588661,0.000152592547379986,0.0390942106387524,0.0256355479598376,0.0479140598773156,-0.0305439415672272,-0.00707012136193935,-0.160883409120965,-0.00263476465142776,0.0412203334655802,0.284300261441898,-0.0136722922452467,-0.0251523382264677,0.0386872971790724,0.0389924822738324,-0.0364747052420626,0.899934893846451
3.99,2,-0.0636310922574541,0.000152592547379986,0.0386466058331044,0.0403149510177923,0.0495874914802494,-0.0401521856339203,-0.000885036774803919,-0.158401237016917,-0.0011291848506119,0.0577461063468327,0.292758974984995,-0.00497451704458754,-0.00805180008341726,0.0556657612842189,0.0386059144871364,-0.0456760358490758,0.902391633859269
4.02,2,-0.0636310922574541,0.000152592547379986,0.0387229021067944,0.0535396384573911,0.0422630492060101,-0.0501063061413414,0.00790429395428327,-0.158380891343933,-0.0010478021586759,0.0819065930153305,0.294646036154261,-0.00783817051708528,0.011139255958739,0.0749585456912951,0.0386059144871364,-0.0509760836614073,0.908124027222511
4.05,2,-0.0636310922574541,0.000152592547379986,0.0386516922513504,0.0675425478886278,0.0462355418561358,-0.0628528702658162,0.00194301176997182,-0.160781680756045,-0.00210577715384381,0.0918759727774895,0.298913541062654,-0.00887579983926918,0.0290129296751813,0.0927966144800155,0.0386059144871364,-0.0637785983865881,0.907747632272306
4.08,2,-0.0635039318013042,0.000152592547379986,0.0387076428520564,0.0805841242713706,0.0417035431989502,-0.0725018056784773,0.00232957955666779,-0.162022766808069,-0.00296029541917173,0.116331471704255,0.312560401216671,-0.0120802433342489,0.0448672953479619,0.108640807316304,0.0386059144871364,-0.0739819533880632,0.906323435163427
4.11,2,-0.0633869441816462,0.000152592547379986,0.0386466058331044,0.0931933551032034,0.043270160018718,-0.0843633330281482,0.010386466058331,-0.161208939888709,-0.00568661559902748,0.116143274229153,0.349609871720532,-0.00924710837122715,0.0611082288074384,0.124703716137171,0.0386059144871364,-0.0849635303811762,0.904451633248899
4.14,2,-0.0626646727907142,0.00207525864436781,0.0386618650878424,0.10727256080813,0.04307687612537,-0.101077303384503,0.0087588122196112,-0.168146814376253,-0.0126855271055228,0.127587715282652,0.372213914405754,0.010727256080813,0.0801161737927386,0.142994476149785,0.0381888281909645,-0.103452660705384,0.896155685089674
4.17,2,-0.0620186976734723,0.0021413820815658,0.0342468540503148,0.118477940204067,0.0355438907030447,-0.108422091331726,0.0163274025696585,-0.168350271106093,-0.0124210333567309,0.126041444135868,0.375321715954059,0.0138757489750867,0.102252265999329,0.164530371003347,0.0356151005584887,-0.108523819696646,0.887976724550106
4.2,2,-0.0611082288074384,0.00452182582069358,0.0372529272337006,0.127836949776706,0.0232601906389559,-0.116906236966053,0.00814844203009125,-0.181371501815851,-0.00226854253771579,0.16897590055035,0.378673665578173,0.0120598976612649,0.124958037049471,0.186264636168503,0.0355540635395367,-0.120914334543901,0.862554806156601
4.23,2,-0.0599637847020885,0.00496434420809554,0.0360423596911527,0.128864406262398,-0.00350962858973968,-0.112186040833766,0.00877915789259519,-0.19693594164861,-0.0180364391003143,0.21439252906888,0.395565660573138,0.0492568742942595,0.147740104373302,0.207912432223477,0.0363628040406507,-0.112735374004334,0.76275928017009
4.26,2,-0.0478428500218716,0.0381837417727185,0.0480056154057436,0.122058778649251,-0.0343282367422508,-0.112109744560076,-0.0153711559394106,-0.23581652272103,-0.032542903937905,0.171376689962462,0.487701040681173,0.133462528356782,0.174336985381634,0.222383292133346,0.0579699087496567,-0.120619322285633,0.529333374024679
4.29,2,0.00454725791192358,0.173075553656626,0.0704468927070935,0.0917844172490616,-0.123711864579201,-0.107898190252388,-0.0311797438479771,-0.290688802758873,-0.0191757967874182,0.101229895931883,0.663670766319773,0.11299478133488,0.208248135827713,0.203858556881415,0.0769371623889889,-0.118457594531083,0.348546810307118
4.32,2,0.106590980763166,0.345835749382,0.0814284697002065,0.0353709524826807,-0.221574551632232,-0.120283618681397,-0.0813318277535325,-0.32334360789819,-0.0132755516220588,0.0450300607318339,0.945733003733431,-0.0228380179245379,0.257067578152816,0.150563066499832,0.0830459507024344,-0.129734183782464,0.26184372488581
4.35,3,0.241116570533362,0.45946633299763,0.043549913022248,-0.054256823430077,-0.327860347300638,-0.0778984954374828,-0.0606809696747744,-0.299640898871832,-0.00574765261797947,-0.00175481429486984,0.982507807652008,0.00298064109215573,0.316970325835953,0.075924965158035,0.0410626544999542,-0.0715150405387534,0.19563890499588
4.38,3,0.380209763888465,0.4797204504532,0.0204830062766401,-0.150685140537736,-0.322219509465824,0.021535894853562,0.00788394828129927,-0.236365855891598,0.000152592547379986,-0.00199387595243182,0.871654408398694,-0.160008545182653,0.373088778344066,-0.00695822016052736,-0.00033061718598997,0.076535335347555,0.0689667449975076
4.41,3,0.503723258156072,0.430585650196844,-0.00634276355276142,-0.181773328857285,-0.010747601753797,0.107928708761864,0.0730104475030773,-0.217566454054384,0.00389619637643564,0.0332295704011149,0.661412396618549,-0.500544246752322,0.419141209143345,-0.0843277281004262,-0.022192042807296,0.129851171402122,0.0155796990874966
4.44,3,0.591046886603392,0.305363119398582,-0.0181788588112023,-0.124678284045941,0.238812423067924,0.0553351440982289,-0.00613422040467544,-0.108859523300882,0.000478123315123956,-0.194102806685588,0.138976205735445,-0.403571682892341,0.443245745211137,-0.147536647643462,-0.0178126366974904,0.0557064526301869,0.00449639372946359
4.47,3,0.639072847682119,0.170949430829798,-0.00723797316405733,-0.0388042847987304,0.305714082257556,0.0208644876450901,-0.00796533097323527,-0.0921150344350515,-0.0155542669962666,-0.194809818821782,-0.299437442141992,-0.312336598813847,0.436348562069562,-0.202490310373241,0.00475580106000956,0.0366476434624266,0.0022176783552558
4.5,3,0.664815210425123,0.0948108361054313,0.0299640898871832,0.0451063570055239,0.28438673055208,0.0202337717825861,0.0317697683645131,-0.13317260251676,-0.0236314991709138,-0.216625466678874,-0.515376242357657,-0.19164606667277,0.409670298369294,-0.254895677561775,0.0403759880367443,0.0424919380270801,0.00174464145837784
4.53,3,0.695379497665334,0.108422091331726,0.0446078880174159,0.127302875860876,0.285917742444126,0.0129296751813308,0.0730104475030773,-0.173436689352092,-0.0282499669382814,-0.157872249519333,-0.419420962146875,-0.1287982828252,0.381903541164383,-0.313257240516373,0.0448469496749779,-0.000839259010589923,0.00167851802117985
4.56,3,0.73459578234199,0.138111514633625,0.0389517909278644,0.195099744661804,0.206508580787581,-0.0134434034241768,0.0788903469954527,-0.173701183100884,-0.0399080375581123,-0.15523239844966,-0.366440829696544,-0.167373678802861,0.358027893917661,-0.376293221839045,0.0367595446638386,-0.0175634022034364,0.00167851802117985
4.59,3,0.773089795627715,0.135603910438348,0.0361847794020407,0.229183833328247,0.098289946185695,-6.10370189519944e-05,0.0679647206030457,-0.125787123223568,-0.0396028524633524,-0.097323526718955,-0.343175552639342,-0.13019704784285,0.337254961800999,-0.435560167241432,0.0369273964659566,0.00409965310627562,0.00167851802117985
4.62,3,0.813877783542385,0.141712698751793,0.0348877427493108,0.244865260780663,0.0445214189072339,0.00708538061667735,0.0795007171849727,-0.114719077120273,-0.0415763827428002,-0.0804162724692526,-0.324523656931262,-0.126753542690308,0.317051708527889,-0.496597186193426,0.0339467553738009,0.0151676992095706,0.00167851802117985
4.65,3,0.852544735048474,0.134668009481084,0.0348012736391288,0.251340271207821,0.0191656239509262,0.0147506129133986,0.0909146397289956,-0.100416069012523,-0.0477818130029196,-0.0565711437320068,-0.315591906491287,-0.0862300485244301,0.297830133976257,-0.554495885087639,0.0345469527268288,0.022176783552558,0.00167851802117985
4.68,3,0.890494501581876,0.131229590746788,0.0335500147506129,0.257169306517736,0.0242266101056958,0.0192114017151402,0.100314340647603,-0.0940275276955474,-0.0487177139601835,0.0443586535233619,-0.304188156783756,-0.00736004720196132,0.279407127089246,-0.610812707907346,0.032425916318247,0.0186061179438663,0.00167851802117985
4.71,3,0.922818689535203,0.11235897905413,0.0342214219590848,0.266284168014568,0.0334126814579709,0.0157424644713686,0.10442416659037,-0.0908739483830276,-0.0470900601214637,0.126214382356232,-0.302260404268522,0.0160934273303425,0.260933256019776,-0.661697236040325,0.0346486810917488,0.00963367615792311,0.00134281441694388
4.74,3,0.948937447228411,0.0905382447787917,0.0380209763888465,0.274432610044659,0.0258390046896776,0.011210465814183,0.11001922666097,-0.0925422935677155,-0.0404573707286803,0.195008189133376,-0.251838740195929,0.0466170232245857,0.24453973001292,-0.704179001230913,0.0381481368449965,0.00733461511073133,0.00152083905555386
4.77,3,0.970534379100925,0.0741142002624592,0.0386313465783664,0.278064312672302,0.010645873388877,0.0100202439446191,0.115125990579953,-0.107231869462162,-0.0266630044455295,0.237230546993418,-0.181213822850225,0.0853500981678721,0.231360820337535,-0.73891923785109,0.0382956429741305,0.0100405896176031,0.00165308592994985
4.8,3,0.990310373241371,0.0674255602689698,0.0371410260322886,0.278710287789544,0.000473036896877956,0.010635700552385,0.101779229102451,-0.104302092552466,-0.0167546617023225,0.265739921262246,-0.0925219478947315,0.128447319966226,0.223471785637989,-0.766609698782311,0.0362407300027467,0.0138859218115787,0.00167851802117985
4.83,3,1.0099846390169,0.0670898566647338,0.032802311268451,0.278517003896196,0.000152592547379986,0.0128533789076408,0.098320464695171,-0.115329447309793,-0.00615456607765943,0.276039918210395,0.0191452782779422,0.160903754793949,0.221254107282734,-0.788496556494847,0.0317189041820531,0.0141911069063387,0.00167851802117985
4.86,3,1.02998443556017,0.0683360291350037,0.0272530289620655,0.278481398968474,0.000152592547379986,0.0140436007772047,0.0748212123986531,-0.105278684855698,0.00159713532924385,0.271970783613595,0.0939156264941354,0.183350118513545,0.225150303659169,-0.804620502334666,0.0256813257240516,0.0141911069063387,0.00167851802117985
4.89,3,1.04443494979705,0.0498825037385174,0.0269681895402895,0.27853734956918,0.000152592547379986,0.0146336252937407,0.0563269956561988,-0.105665252642394,0.00945056510106713,0.231030203151545,0.103671376689962,0.218293811863562,0.231243832717877,-0.812946969003367,0.0275022634561195,0.0141911069063387,0.00167851802117985
4.92,3,1.05593025503301,0.0394350006612344,0.0143436994537187,0.278659423607084,0.000152592547379986,0.00790938037252927,0.0394197414064964,-0.10523799350973,0.0143945636361787,0.173238319040498,0.0734122745445112,0.241452274137598,0.236823633533738,-0.818872646259957,-0.00887579983926918,-0.0270088808862575,0.00167851802117985
4.95,3,1.04914497309285,-0.0239366842656738,-0.0288654235460473,0.274264758242541,-0.0262713502405876,-0.033015940834783,-0.0121565396079389,-0.0903856522314117,0.0184636982329783,0.0846634317046622,-0.075975829340495,0.258898688721376,0.237388225959044,-0.811487166966765,-0.0269936216315195,-0.0597450687175105,0.00167851802117985
4.98,3,1.019394512772,-0.106295968504898,-0.0144708599098687,0.248563086845505,-0.106570635090182,-0.0352183599353008,-0.0385041861222165,-0.0932340464491714,0.0177515996785384,-0.0162714519689525,-0.338216294849493,0.268115278583127,0.224509414960173,-0.794640949736015,-0.00590533158360546,-0.0193741670990122,0.00167851802117985
5.01,3,0.992105878882209,-0.102913500371309,-0.000478123315123956,0.209804579810989,-0.135044404431288,-0.0149438968067466,-0.022227647735018,-0.129652801090528,0.0191757967874182,-0.15380820134078,-0.551515243995483,0.186407055879391,0.196620583717358,-0.795236060670797,-0.0011291848506119,0.0153101189204586,0.00167851802117985
5.04,3,0.970096947131769,-0.0793532110558387,-0.00349436933500168,0.179774366486607,-0.0909807631661936,0.00245165359457177,0.0725018056784773,-0.2190720338552,0.011363058361563,-0.261391033661916,-0.466928108564511,0.0682444736065757,0.164337087109999,-0.805546230455438,-0.00509150466424553,0.0198014262316762,0.00167851802117985
5.07,3,0.93900875881222,-0.104001993875952,0.00141911069063387,0.167460147913043,-0.0277311522771895,0.00642923266294341,-0.00224819686473179,-0.161412396618549,0.00289925840021973,-0.37206640827662,-0.457904802596108,-0.0582344024984486,0.138543860184535,-0.800251269061352,0.00266528316090375,0.00428785058137761,0.00167851802117985
5.1,3,0.916740419731234,-0.0778018534908088,0.00122582679728589,0.166600543229469,-0.00043743196915596,-0.0021362956633198,0.0285144606870734,-0.207271543524481,-0.0131738232571388,-0.416994740643534,-0.460468357392092,-0.0952380952380952,0.109515671254616,-0.80698060040081,0.000910468866033916,-0.00662760297453739,0.00167851802117985
5.13,3,0.897493413088371,-0.0632089195430362,0.000259407330545976,0.166702271594389,-0.000162765383871985,-0.00449639372946359,0.0307931760612812,-0.197159744051434,-0.0258898688721376,-0.390703044729962,-0.348623106580808,-0.043514308094526,0.0862961719616281,-0.810968352305673,-0.000534073915829951,-0.00717184972685934,0.00167851802117985
5.16,3,0.881201615446435,-0.0534277372559791,0.000203456729839981,0.164535457421593,-0.00731935585599333,-0.00237027090263578,0.0256050294503616,-0.171056245612964,-0.0346791996012248,-0.332895901364177,-0.366908780175176,0.0426903083386741,0.0644296599220761,-0.816568498794519,-0.000457777642139958,-0.00343333231604968,0.00167851802117985
5.19,3,0.867483545436974,-0.0457269000315358,0.000244148075807978,0.164779605497401,0.000147506129133986,-0.00319427065848771,0.0427971231218401,-0.147658721681366,-0.0412305063020722,-0.245007680491551,-0.282474237291584,0.135502182073428,0.0453352458265938,-0.821873633025096,-0.0010376293221839,-0.00610370189519944,0.00167851802117985
5.22,3,0.852031006805628,-0.0507217627491073,0.000233975239315978,0.165018667154963,0.000152592547379986,-0.0043743196915596,0.0497146519363994,-0.114251126641641,-0.0408032471694082,-0.1506037578458,-0.262596514786218,0.195242164372692,0.0287535223446354,-0.823033336385184,0.000783308409883928,-0.00610370189519944,0.00167851802117985
5.25,3,0.834233629362875,-0.0588447726879686,0.00392162846766564,0.165105136265145,0.000152592547379986,-0.00525935646636352,0.10574663533433,-0.0926033305866675,-0.0512609230831833,-0.0423800368256681,-0.165939308857489,0.181819106621499,0.0151982177190466,-0.818760745058545,0.0043438011820836,-0.00610370189519944,0.00167851802117985
5.28,3,0.82031718904182,-0.0473850723797316,0.00484227017019155,0.165242469557787,0.000152592547379986,-0.00564083783481348,0.193497522914314,-0.167312641783909,-0.152745139927366,0.0842921231727043,0.170949430829798,0.170135603910438,0.0164647358623005,-0.803608305103712,0.00448113447472559,-0.00630207220679342,0.00235501164789778
5.31,3,0.819188004191209,-0.0076601458784753,-0.00132755516220588,0.165257728812525,0.000152592547379986,-0.00603757845800144,-0.0332143111463769,-0.3027334411654,-0.0010478021586759,0.0408693706066062,0.273313598030539,0.0583157851903846,0.0299742627236752,-0.788979766228217,-0.00288908556372773,-0.0065614795373394,0.0626850184636982
5.34,3,0.82405570645263,0.00635802280749942,-0.00452182582069358,0.165217037466557,0.000152592547379986,-0.00637836848048341,0.0134790083518988,-0.0797652109337647,-0.0376089765109205,-0.0307982624795272,0.190862758262886,0.0114851323994669,0.0455030976287118,-0.778303374329864,-0.00668355357524339,-0.00621051667836543,0.0345418663085828
5.37,3,0.829335408591978,0.00504064048178554,-0.00671407208471938,0.165191605375327,0.000152592547379986,-0.00614947965941343,0.0126448357595548,-0.204504531998657,0.00633767713451542,-0.0660420545060579,0.154286324655904,-0.064739931435082,0.0550452182582069,-0.774030783003225,-0.00711589912615335,-0.00610370189519944,0.0599841303750725
5.4,3,0.837778862880337,0.0168055258847825,-0.00810266426587725,0.165105136265145,0.000152592547379986,-0.00624612160608743,0.0163274025696585,-0.160435804315317,-0.000905382447787917,-0.032639545884579,0.120660013631601,-0.0475783562730796,0.0628732159388002,-0.774712363048189,-0.0101931821649831,-0.00610370189519944,0.086545406455682
5.43,3,0.842407503484196,0.00641905982645141,-0.0334533728039389,0.165089877010407,0.000152592547379986,-0.00632241787977742,0.0132958972950428,-0.151198868780582,-0.00530004781233151,-0.0174362417472864,0.122918383332825,-0.0441806288847519,0.0709148431857255,-0.771253598640909,-0.054872280037843,-0.0076245409507533,0.107359029918312
5.46,3,0.826705730358796,-0.0641549933367921,-0.0816929634489985,0.163731803338725,-0.00778221991637928,-0.00793989888200527,0.0279854731894894,-0.165054272082685,-0.00243130792158778,-0.0164240445163325,0.0384278898485265,-0.0285449791965494,0.076377656381929,-0.750114444410535,-0.0766472365489669,-0.010711996826075,0.162704346853033
5.49,3,0.820225633513393,-0.032690410067039,-0.0727256080813013,0.157933286538285,-0.021342610960214,-0.00894700969471318,0.00556454156112349,-0.155471460107222,-0.00407930743329162,-0.00530513423057751,0.0825220496230964,-0.00846888637958922,0.0795464949491867,-0.740440076906644,-0.0752739036225471,-0.010722169662567,0.225084180221971
5.52,3,0.812143314920499,-0.0377463098035625,-0.122460605690685,0.154550818404696,-0.00929288613544115,-0.0118259224219489,0.0260526342560096,-0.163731803338725,-0.00534073915829951,-0.0235552028972238,0.0642363760287281,-0.0350759402244128,0.0845362712485122,-0.727342549923195,-0.132806380403048,-0.02127140110477,0.238186793623666
5.55,3,0.78199611397646,-0.112603127129938,-0.153467411318298,0.149927264219082,-0.0195877966653442,-0.0192012288786482,0.0271919919431135,-0.176915799432356,0.00149540696432386,-0.0229499191259499,-0.0657063509018219,0.0132246874395988,0.0839818516596983,-0.697780287077446,-0.148024943795078,-0.0260984120202236,0.286533199051892
5.58,3,0.76398002054913,-0.0741040274259672,-0.167505925677257,0.140308847315897,-0.0336517431155329,-0.0220597959329,0.0137841934466587,-0.142572303435367,-0.010834070863979,-0.0626036357717622,-0.0478225043488876,-0.0306812748598692,0.0804722230699586,-0.683238217312133,-0.174921923479924,-0.0229143141982279,0.330042420728172
5.61,3,0.735679189428388,-0.105538092186244,-0.209234900967437,0.133182775353252,-0.0228380179245379,-0.0239112521744438,0.0336212246060569,-0.173701183100884,0.00829086174097924,-0.0493179113132115,-0.135965046133813,-0.0479801833145136,0.0748975086723431,-0.660532446261991,-0.211701813816747,-0.0271818191066215,0.360098066143783
5.64,3,0.699235002695802,-0.135034231594796,-0.223156427706737,0.125075024669128,-0.0319020152389091,-0.0261543626209296,0.0155135756502986,-0.170038961963764,-0.000356049277219967,-0.00837224443291523,-0.203945025991597,-0.0127821690521968,0.0643940549943541,-0.634601886043886,-0.222017070019634,-0.0280872015544094,0.406943978189439
5.67,3,0.659998372346161,-0.142577389853613,-0.223568427584663,0.11322367015595,-0.0422325306965341,-0.0192622658976002,0.00912503433332316,-0.13459679962564,0.0010478021586759,-0.032425916318247,-0.230023092338837,-0.0385041861222165,0.0516118859421573,-0.608157597582934,-0.240043336283456,-0.0252845851008637,0.442513300983713
5.7,3,0.59167251604765,-0.24428540910062,-0.221355835647654,0.0964232306894131,-0.064826400545264,-0.0237586596270638,0.0269274981943215,-0.19968260750145,-0.00275683868933175,0.0346435946735028,-0.428205206457717,-0.00831120741396323,0.0308796451714632,-0.560548722800378,-0.1985381633961,-0.0181686859747103,0.495920692566708
5.73,3,0.557023834955901,-0.13304544206061,-0.21528265226193,0.0743583483382672,-0.0731172622862433,-0.0143080945259967,-0.00617491175064343,-0.11185033722953,0.00334686320586769,-0.0594042786950285,-0.241025015004934,-0.176981922869554,0.0118666137679169,-0.5448825546027,-0.240073854792932,-0.00839767652414523,0.572298348948637
5.76,3,0.47483748893704,-0.285231075980916,-0.240033163446964,0.0593534145125685,-0.0501826024150314,-0.00712607196264534,0.0381379640085045,-0.191422264269946,-0.00379446801151565,0.23924985503708,-0.598696859645375,0.105090487380596,-0.0132145146031068,-0.487940102338735,-0.237210201320434,-0.0117750582394889,0.607013153477584
5.79,3,0.383658355459253,-0.321660003458764,-0.221467736849066,0.0258491775261696,-0.138187810907315,0.00284330779951374,-0.010488194423251,-0.177424441256956,-0.0137028107547227,-0.0939461450036114,-0.731365906755781,-0.0507370220038453,-0.054078798791467,-0.437650685140538,-0.204092532120731,0.00767031871496729,0.661366618854335
5.82,3,0.307407859533474,-0.270338043356629,-0.179779452904853,-0.0209763888465021,-0.1546728924426,0.0187841425824763,-0.0021261228268278,-0.0935188858709474,-0.00296029541917173,0.0947091077405113,-0.727937660857977,-0.0180313526820683,-0.097496464939319,-0.404817855362611,-0.185918759727775,0.0404319386374503,0.677093824070966
5.85,3,0.198136336354666,-0.352814315215512,-0.11088391776279,-0.0553453169347209,-0.0934731081067334,0.0416323333435062,0.000274666585283975,-0.164850815352845,-0.010732342499059,0.0348368785668508,-0.887763094983774,-0.010727256080813,-0.152317880794702,-0.348984242276274,-0.0959756258837652,0.0574460076703187,0.681188390758995
5.88,3,0.103564561906796,-0.29881689911598,0.00102237006744591,-0.0725068920967233,-0.0357117425051627,0.0619424013997823,-0.0318511510564491,-0.166478469191565,-0.00283822138126774,0.0575121311075167,-0.671249529506312,-0.075619780063275,-0.202139347514267,-0.30563269956562,0.0164850815352845,0.0668101036612039,0.681742810347809
5.91,3,0.0680003255307677,-0.118386384675639,0.0371817173782566,-0.0743278298287912,0.000991851557969909,0.064663635161392,-0.0855637277342041,-0.138645588549455,-0.000518814661091952,0.0720999786370434,-0.319950966928109,-0.0125939715770948,-0.232373017568489,-0.300297046825566,0.0402284819076103,0.0645619067964721,0.668029826756595
5.94,1,0.0490483311461735,-0.0460982085634938,0.0376547542751345,-0.0728069907732373,0.00665812148401339,0.0627613147373882,-0.0808231859289326,-0.123142185735649,-0.00554419588813949,0.0589973652353486,0.0663116346730959,-0.0444400362152979,-0.23718985564745,-0.28616697693818,0.0410219631539862,0.0623289691864783,0.652699362163152
5.97,1,0.0419883826207261,-0.00369273964659566,0.0423444318979461,-0.0732342499059013,0.000152592547379986,0.0619932655822423,-0.0660725730155339,-0.141148106326487,-0.0163274025696585,0.0147913042593666,0.21568956572161,0.0311950031027151,-0.230445265053255,-0.272331919309061,0.0343231503240048,0.0615049694306263,0.657694224880723
6,1,0.0382193467004405,0.00276701152582375,0.0186620685445723,-0.0735394350006612,0.000152592547379986,0.0597857600634785,-0.0282296212652974,-0.163121433149205,-0.010732342499059,-0.0267138686279895,0.234453362631102,-0.0315561387981811,-0.220409761853898,-0.258496861679942,0.0195674509923602,0.0599688711203345,0.698594113996806
6.03,1,0.0347504094566688,0.000732444227423933,0.0210832036296681,-0.0739819533880632,0.000152592547379986,0.0607470931119724,-0.032705669321777,-0.166071555731885,-0.00808740501113926,-0.06480605487228,0.239600817896054,-0.0257677948342336,-0.205155593534145,-0.239844965971862,0.0208594012268441,0.0608844264046144,0.77828302865688
6.06,1,0.0333618172755109,0.00585955381939146,0.0165206864630065,-0.0742566199733472,0.000152592547379986,0.0609810683512884,-0.0231228573463139,-0.167027802362133,0.000254320912299977,-0.0620085248369803,0.199458805098626,-0.0375326802372305,-0.189870906704917,-0.223151341288491,0.0149235511337626,0.0614185003204444,0.838719850255847
6.09,1,0.0288298186183253,-0.00556454156112349,0.0207322407706941,-0.0726798303170873,0.00793989888200527,0.0566423535874508,-0.0268664611753695,-0.162775556708477,0.00151575263730786,-0.0427767774488561,0.174738812423068,-0.0197149571214942,-0.175323750521358,-0.204072186447747,0.02223782057151,0.0556403291929889,0.864630064800968
6.12,1,0.0267494735557115,-0.00021871598457798,0.0189113030386263,-0.0678273873104038,0.0192012288786482,0.0474918871628976,-0.0168563900672424,-0.160212001912493,0.000701925717947935,-0.0124769839574369,0.160959705394655,-0.00348419649850968,-0.158172348195847,-0.184865871150853,0.0178940193894264,0.0456912951038138,0.86425875626901
6.15,1,0.0230923388368379,-0.00590024516535946,0.0176956490778324,-0.0594093651132745,0.0297250282296213,0.0366120385347046,-0.0251777703176977,-0.15652943510239,-0.00245165359457177,-0.00663777581102939,0.154560991241188,0.00312306080304371,-0.143177587206641,-0.166132592750837,0.0194097720267342,0.0296945097201453,0.857173375652333
6.18,1,0.0185145624154383,-0.00902330596840317,0.021571499781284,-0.0528224534847051,0.0197810805586922,0.0295419171727653,-0.0277820164596494,-0.15591906491287,-0.00159713532924385,-0.00972523168635111,0.153945534633422,-0.00243639433983378,-0.135598824020102,-0.15406252225308,0.021388388724428,0.0295826085187333,0.844899848424736
6.21,1,0.0145675018565427,-0.00822982472202724,0.0205033519496241,-0.0471154922126937,0.022202215643788,0.0297555467390973,-0.0169377727591784,-0.158116397595141,-0.00489313435265155,-0.0119886878058209,0.165283160903755,-0.0022075055187638,-0.125298827071952,-0.139784946236559,0.0204677470219021,0.0259915972370576,0.839828689433475
6.24,1,0.0125227617216508,-0.00254320912299977,0.0193792535172582,-0.0370596433403526,0.0339314961190629,0.0146743166397086,-0.0310373241370891,-0.158625039419741,-0.00308236945707572,-0.0193029572435682,0.17253639332255,-0.00190740684224982,-0.117720063885413,-0.130166529333374,0.0169530320139164,0.00690226955982136,0.842193873917864
6.27,1,0.00973540452284311,-0.0064800968454034,0.0152338226467686,-0.0337178665527309,0.00658182521032339,0.00965910824915311,-0.011139255958739,-0.162572099978637,-0.000295012258267973,-0.0149438968067466,0.151437930438144,-0.0134128849147008,-0.1138594724367,-0.123493148594623,0.0166478469191565,0.0246284371471297,0.844879502751752
6.3,1,0.00840784936063723,-0.00200404878892382,0.0162155013682465,-0.0260577206742556,0.0319579658396151,0.0086977752006592,-0.010691651153091,-0.159194718263293,-0.00011190120141199,-0.00739565212968332,0.164708395641957,-0.00522883795688752,-0.097338785973693,-0.105665252642394,0.0137689341919207,0.00190232042400382,0.8527024140141
6.33,1,0.00807723217464726,0.00011190120141199,0.010935799228899,-0.0184636982329783,0.0199794508702862,0.000818913337605925,-0.0195013275551622,-0.159825434125797,0.0021871598457798,0.0120497248247729,0.144108401745659,-0.00849940488906522,-0.0910316273486536,-0.0989969583218889,0.00957772555721712,0.00122074037903989,0.855805129144159
6.36,1,0.00774661498865729,0.000152592547379986,0.00806705933815526,-0.0122277494633829,0.021642709636728,-0.00116987619657989,-0.0139876501764987,-0.160354421623381,0.0010681478316599,0.0293791517888933,0.145786919766839,-6.10370189519944e-05,-0.0804976551611886,-0.0881374553666799,0.00677510910367138,-0.00373343099256366,0.860433769748019
6.39,1,0.00737530645669932,0.000152592547379986,0.00581886247342346,-0.00578834396394747,0.0211747591580961,-0.00367748039185766,-0.00798567664621926,-0.161310668253629,-0.000844345428835922,0.0459405295978678,0.164855901771091,7.12098554439934e-05,-0.0705842259997355,-0.0778883226009908,0.00427259132663961,-0.00820947904904324,0.859813226722007
6.42,1,0.00589007232886746,-0.00409965310627562,0.00200404878892382,0.00205999938962981,0.0286772260709454,-0.00778730633462528,-0.00943021942808313,-0.159113335571357,-0.00021362956633198,0.0631021047598702,0.19055248674988,0.00300098676513972,-0.0556708477024649,-0.0614642780846583,0.00347911008026368,-0.0197353027944782,0.861354411450545
6.45,1,0.00449130731121759,-0.00412508519750562,0.00366730755536566,0.0097862687053031,0.022054709514654,-0.0192978708253222,-0.0197658213039542,-0.157933286538285,-0.00011190120141199,0.0848363699250262,0.211569566942351,0.00142419710887987,-0.0467085787530137,-0.0511032441175573,0.00343333231604968,-0.0258593503626616,0.866659545681122
6.48,1,0.00480666524246956,-1.52592547379986e-05,0.000132246874395988,0.0165969827366965,0.0234026103498438,-0.0241706595049898,-0.00336720887885169,-0.160293384604429,-0.0021261228268278,0.104719178848638,0.223649810276599,0.000228888821069979,-0.0378327789137445,-0.0425428022095401,-0.0011342712688579,-0.0280058188624734,0.871817173782566
6.51,1,0.00514745526495153,0.000152592547379986,-0.00116987619657989,0.0268868068483535,0.0347097181107008,-0.0360372732729067,-0.00800602231920326,-0.161717581713309,-0.00503555406353954,0.124607074190497,0.241899878943246,-0.0011342712688579,-0.0229143141982279,-0.0279498682617674,-0.00274666585283975,-0.0471917884863837,0.868724631488998
6.54,1,0.00560523290709148,0.000152592547379986,-0.00287382630898974,0.0360016683451847,0.0286467075614694,-0.0496281828262174,-0.0065207881913714,-0.166722617267373,-0.00806705933815526,0.123381247393211,0.258832565284178,0.00283822138126774,-0.0122430087181209,-0.0177617725150304,-0.00285348063600574,-0.0522883795688752,0.861888485366375
6.57,1,0.00665303506576739,0.000152592547379986,-0.00341298664306569,0.043163345235552,0.021632536800236,-0.0521103549302652,-0.00204474013489181,-0.170262764366588,-0.00837224443291523,0.125080111087374,0.260500910468866,-0.00425733207190161,0.00243639433983378,-0.00408439385153762,-0.00340281380657369,-0.0523087252418592,0.843806268501846
6.6,1,0.0086926887824132,0.000152592547379986,-0.00360627053641367,0.0473596402885016,0.0116631570380769,-0.0502690715252134,0.0116478977833389,-0.173090812911364,-0.00930814539017914,0.137287514877773,0.213522751548814,0.000411999877925962,0.0168106123030285,0.00820439263079725,-0.00458794925789158,-0.0514643798130233,0.773252561011587
6.63,1,0.0114190089622689,0.000152592547379986,-0.00511185033722953,0.0485244300668355,0.000666320790225939,-0.0458438876511938,0.0156153040152186,-0.174718466750084,-0.0193792535172582,0.150023906165756,0.15322326324249,0.0237942645547858,0.0274463128554135,0.0161036001668345,-0.00621051667836543,-0.043488876003296,0.536317026276437
6.66,1,0.0140639464501887,0.000152592547379986,-0.00674459059419538,0.0459557888526058,-0.0117241940570289,-0.0388500625629444,0.0352488784447768,-0.243486841435998,-0.0427767774488561,0.251879431541897,0.250907925656911,0.128604998931852,0.0382295195369325,0.0242723878699098,-0.00788903469954527,-0.0342010762861008,0.227047537664927
6.69,3,0.0203660186569821,0.0101321451460311,-0.0102593056021811,0.0361644337290567,-0.0400199387595243,-0.0182602415031383,-0.0258695231991536,-0.285337890764082,-0.00373343099256366,0.132404553361614,0.223573514002909,0.309869685964538,0.0553453169347209,0.0350861130609048,-0.0151168350271106,-0.0064953561001414,0.0518204290902432
6.72,3,0.0259763379823196,0.00739056571143732,-0.0190842412589902,0.0269732759585355,-0.0228634500157679,0.00180567847732983,0.00833155308694723,-0.219316181931008,0.00595110934781945,0.0197607348857082,0.183441674041973,0.255958738975188,0.0659911903235979,0.0400809757784763,-0.0199387595243182,-0.00532547990356151,0.0119785149693289
6.75,3,0.0335296690776289,0.0152338226467686,-0.021769870092878,0.0201981668548641,-0.0263222144230476,-0.00227362895596179,0.0425733207190161,-0.201554409415977,-0.0200506607257302,-0.0101982685832291,0.209718110700807,-0.0832188889227983,0.0773593351034069,0.043895789462976,-0.0251777703176977,-0.000320444349497971,0.00375377666554765
6.78,3,0.043692332733136,0.0247708568580177,-0.0355896684672587,0.0114139225440229,-0.0281634978280994,0.00664794864752139,-0.0228787092705059,-0.180883205664235,-0.0298776207770012,0.0103203426211331,0.182215847244687,-0.143523463647369,0.0899838251899777,0.0463627023122857,-0.0387483341980244,0.00984221930600909,0.00205491297138381
6.81,3,0.0511947996459853,0.0169021678314564,-0.0184738710694703,0.00364696188238166,-0.0267036957914975,0.0204982655313781,0.0479852697327596,-0.167251604764957,-0.0354523351746167,0.0555843785922829,0.150329091260516,-0.0946124657938373,0.0988545386110009,0.0477512944934436,0.0276802880947295,0.0724356822412793,0.00171412294890184
6.84,3,0.116819767855871,0.218888922798344,0.0914334543900876,0.0257881405072176,0.134286528112634,0.113218583737704,0.179153823460596,-0.298725343587552,-0.04330576494644,0.0591652170374666,0.925392417167679,0.326080100914538,0.1272723573514,0.010595009206417,0.0920845159255755,0.120334482863857,0.00167851802117985
6.87,3,0.258827478865932,0.478723512476984,0.00498468988107954,0.106769005401776,0.304442477696056,0.0344910021261228,-0.00289925840021973,-0.304645934425896,-0.0131738232571388,0.0835596789452803,1.47077852717673,0.477589241208126,0.206010111799473,-0.0525681325724052,-0.00011190120141199,0.00825017039501124,0.00167851802117985
6.9,3,0.390062156030966,0.454873297321492,-0.00952686137475712,0.198812829981384,0.313648894721315,0.00998463901689708,-0.105115919471826,-0.173009430219428,0.00184128340505183,-0.0154728843043306,1.22851242611977,0.177515996785384,0.289223914304025,-0.100589007232887,-0.00749738049460331,-0.0507726269315673,0.00167851802117985
6.93,3,0.504613381349122,0.396140425834936,0.000635802280749942,0.266670735801263,0.200837224443292,-0.0341451256853949,-0.064770449944558,-0.125685394858648,0.0145166376740827,0.0297555467390973,0.821268349253822,-0.312077191483301,0.348902859584338,-0.155496892198452,0.00299590034689372,-0.0562405265460168,0.00167851802117985
6.96,3,0.604047771640166,0.349030020040488,0.00344859157078768,0.284758039084038,0.0272581153803115,-0.0161086865850805,-0.0339671010467849,-0.117160557878353,0.00180059205908383,-0.0961892554500972,0.565991190323598,-0.380306405835139,0.38949756360566,-0.214311146376944,0.00944547868282113,-0.00445061596524959,0.00167851802117985
6.99,3,0.689886165959655,0.3075655384991,0.010518712932727,0.28469191564684,0.00145980203660187,0.00714133121738334,-0.00881984923856319,-0.115390484328745,-0.00916572567929116,-0.144067710399691,0.382295195369325,-0.324732200079348,0.41753390097761,-0.272108116906237,0.0150608844264046,0.011052786848557,0.00167851802117985
7.02,3,0.767606636758527,0.283481348104292,0.0146895758944466,0.2847427798293,0.000172938220363984,0.00877407147434919,0.0305897193314412,-0.154861089917702,-0.0193792535172582,-0.111936806339712,0.277448856064536,-0.167933184809921,0.43621122877692,-0.331186864833522,0.0130364899644968,0.010834070863979,0.00167851802117985
7.05,3,0.833730073956521,0.242362743003632,0.0147862178411206,0.28464105146438,0.000152592547379986,0.00998463901689708,0.0119530828780989,-0.1298155664744,-0.0250760419527777,-0.0906908373261717,0.139469588305307,-0.127836949776706,0.449639372946359,-0.383831293679617,0.0157424644713686,0.010940885647145,0.00167851802117985
7.08,3,0.894538204087446,0.220379243344422,0.0159459212012085,0.284447767571032,0.000152592547379986,0.010788293099765,0.0277413251136814,-0.133315022227648,-0.011139255958739,-0.0348673970763268,-0.0662099063081759,-0.0502232937609994,0.450656656595559,-0.443673004343801,0.0124718975391909,0.011291848506119,0.00167851802117985
7.11,3,0.942325103508611,0.174886318552202,0.0131687368388928,0.284432508316294,0.000152592547379986,0.010976490574867,0.0412508519750562,-0.124179815057833,-0.0131534775841548,-0.0359558905809707,-0.176671651356548,-0.00800093590095726,0.443637399416079,-0.498463901689708,0.0135044404431288,0.011291848506119,0.00167851802117985
7.14,3,0.97715180923897,0.12790815963215,0.0178584144617044,0.284432508316294,0.000152592547379986,0.011266416414889,0.0374258654540646,-0.110405794447666,-0.0144352549821467,-0.0300556454156112,-0.393495488347016,0.0275073498743655,0.425829849136835,-0.551087984862819,0.0197200435397402,0.011291848506119,0.00167851802117985
7.17,3,1.0014598020366,0.0901872819198177,0.0239265114291818,0.28438673055208,0.000152592547379986,0.011261329996643,0.0603961302529984,-0.115085299233985,-0.0168767357402264,0.00163782667521185,-0.496276741843928,0.0950651570177313,0.398632770775475,-0.602608315276549,0.0251930295724357,0.011291848506119,0.00167851802117985
7.2,3,1.01974038921272,0.0688853623055717,0.0174718466750084,0.284279915768914,0.000152592547379986,0.00581377605517747,0.0811894080426445,-0.122145247759433,-0.0171819208349864,0.0269376710308135,-0.528504287850581,0.147841832738222,0.367249570197658,-0.652221238848028,-0.00595110934781945,-0.0299081392864772,0.00167851802117985
7.23,3,1.01947080904569,0.0032959990234077,-0.0289468062379833,0.278171127455468,-0.032746360667745,-0.0354523351746167,0.00462864060385957,-0.0586464023763746,-0.0157170323801386,0.0595823033336385,-0.659026866461175,0.152500991851558,0.332890814945931,-0.686346018860439,-0.0291400901313313,-0.0600095624663025,0.00167851802117985
7.26,3,0.99529506312245,-0.0806858526362906,-0.0168665629037344,0.251335184789575,-0.110065004425184,-0.0339314961190629,-0.0205999938962981,-0.0584429456465346,-0.0142928352712587,0.06554358551795,-0.91399884029664,0.141463464257739,0.284737693411054,-0.710323394472081,-0.0087486393831192,-0.0191910560421562,0.00167851802117985
7.29,3,0.965371664581235,-0.103045747245705,-0.00153609831029186,0.21767326883755,-0.103574734743288,0.00355540635395367,0.0422681356242561,-0.118767866044089,-0.0137841934466587,0.0692210659098076,-1.0178584144617,0.151142918179876,0.225231686351105,-0.73988565731783,0.000137333292641987,0.00389110995818964,0.00138350576291187
7.32,3,0.929176712342702,-0.119551174453973,0.00400301115960163,0.206671346171453,-0.02211066011536,-0.00402844325083163,0.0732952869248533,-0.153355510116886,-0.00523901079337952,0.0719270404166794,-0.906598101748711,0.159092989898373,0.168085777357301,-0.76085187332784,0.00606809696747744,-0.0179245378989024,0.00150049338256986
7.35,3,0.893047883541368,-0.118655964842677,0.00941496017334514,0.206401766004415,6.61234371979939e-05,-0.0160527359843745,0.0754112369151891,-0.177973774427524,0.00298064109215573,0.0388958403271584,-0.842799157689138,0.153101189204586,0.114561398154647,-0.778252510147404,0.010620441297647,-0.0284890285958434,0.00163274025696585
7.38,3,0.859431745353557,-0.11060416475926,0.0115156509089429,0.203385519984537,-0.0136570329905087,-0.0237688324635558,0.0621051667836543,-0.172399060029908,0.00593076367483545,-0.00514236884670553,-0.686661376791691,0.128701640878526,0.0695872880235196,-0.789610482090721,0.0125939715770948,-0.0230719931638539,0.00167851802117985
7.41,3,0.832163457136753,-0.0902381461022777,0.0121717988626769,0.197398805708996,-0.0235094251330098,-0.0209153518275501,0.0666422518590859,-0.17693614510534,0.00684631895911537,-0.0578224026205227,-0.557140822575559,0.0887325663014618,0.032161422569455,-0.799773145746228,0.0118004903307189,-0.0160629088208665,0.00167851802117985
7.44,3,0.815332499160741,-0.0565101067130548,0.00904365164138717,0.190766116316212,-0.02142399365215,-0.0156407361064486,0.0733766696167893,-0.175145725882748,7.12098554439934e-05,-0.0922523677276935,-0.39621163569038,0.0734275337992492,0.00393180130415764,-0.811212500381481,0.00686157821385337,-0.0129449344360688,0.00167851802117985
7.47,3,0.80558183538316,-0.032451348409477,0.00289925840021973,0.185796685689871,-0.0169174270861944,-0.0139164403210547,0.0588702047791986,-0.140863266904711,-0.00521866512039552,-0.104358043153172,-0.262087872961618,0.0955331074963632,-0.0149337239702546,-0.820429090243233,0.0022075055187638,-0.0115309101636809,0.00167851802117985
7.5,3,0.796324554175441,-0.0308033488977732,0.00263985106967376,0.181107008067059,-0.0156865138706626,-0.011388490452793,0.0507319355855993,-0.11123996704001,-0.0159204891099785,-0.111682485427412,-0.23721528773868,0.108727276426486,-0.0300149540696432,-0.826273384807886,0.00293486332794173,-0.00960315764844712,0.00167851802117985
7.53,3,0.790800703960285,-0.0186010315256203,0.0010681478316599,0.177607552313812,-0.0103101697846411,-0.00958281197546312,0.100945056510107,-0.121962136702577,-0.0344350515254168,-0.08658609780165,-0.0569475386822108,0.135095268613748,-0.0390382600380464,-0.829742322051658,0.00121056754254789,-0.00858587399924721,0.00167851802117985
7.56,3,0.789696951200903,-0.0032705669321777,0.000152592547379986,0.175318664103112,-0.00894700969471318,-0.0101168858912931,0.125197098707032,-0.166315703807693,-0.129957986185288,0.0844192836288542,0.188792586036765,0.28616697693818,-0.0350199896237068,-0.824660990223904,-0.00126143172500788,-0.00937935524562314,0.00167851802117985
7.59,3,0.790917691579943,6.61234371979939e-05,0.000152592547379986,0.168752098147526,-0.0272326832890815,-0.00345367798903368,-0.0300403861608732,-0.197790459913938,-0.021251055431786,0.0755333109530931,0.280271818191066,0.196188238166448,-0.0198370311593982,-0.810652994374422,-0.00230414746543779,0,0.0116529842015849
7.62,3,0.796090578936125,0.00518814661091952,-0.00206508580787581,0.160176396984771,-0.0269580167037975,0.0043844925280516,0.0226345611946979,-0.153904843287454,-0.0361644337290567,0.0392061118401644,0.257235429954934,0.0176956490778324,-0.00368765322834966,-0.79965615812657,-0.00358592486342967,0.0054170354319895,0.0258898688721376
7.65,3,0.809310179957478,0.0289773247474593,-0.00601723278501745,0.15446943571276,-0.0164443901893165,0.00502538122704754,0.00938952808211514,-0.188492487360251,-0.0133365886410108,-0.00380464084800765,0.251716666158025,-0.0799737540818506,0.0122480951363669,-0.796833196000041,-0.00920641702525915,0.00487278867966755,0.0349386069317708
7.68,3,0.8247932370983,0.0386466058331044,-0.0119429100416069,0.151804152551856,-0.00661234371979939,0.0043590604368216,0.0171412294890184,-0.15388449761447,-0.0190333770765302,-0.0304066082745852,0.221264280119226,-0.0747703482161931,0.0264951526434116,-0.798079368470311,-0.0136112552262947,0.00335703604235969,0.0459913937803278
7.71,3,0.838633381145665,0.0380870998260445,-0.0137791070284127,0.149983214819788,-0.00752789900407931,0.00348928291675568,0.0169784641051464,-0.167271950437941,-0.0120751569160029,-0.0337127801344849,0.197693817967264,-0.0792413098544267,0.0388856674906664,-0.799508651997436,-0.0145980203660187,0.00400301115960163,0.0498926765750094
7.74,3,0.85201574755089,0.0374411247088026,-0.0157933286538285,0.149540696432386,4.06913459679963e-05,0.00245165359457177,0.0135603910438348,-0.15663116346731,-0.0136214280627867,-0.0277921892961414,0.182002217678355,-0.0626392406994842,0.0503148492894274,-0.801446577349162,-0.0163274025696585,0.00165308592994985,0.0519781080558692
7.77,3,0.862417472863959,0.0287484359263894,-0.0155898719239886,0.149540696432386,0.000152592547379986,0.00136824650817387,0.0170191554511144,-0.163874223049613,-0.0114647867264829,-0.0157170323801386,0.184448784854681,-0.0381277911720125,0.0611997843358664,-0.80097862687053,-0.0155796990874966,0.00152592547379986,0.0663523260190639
7.8,3,0.870021668141728,0.0202846359650461,-0.0149591560614846,0.149505091504664,0.000152592547379986,0.00144454278186387,0.0154525386313466,-0.159703360087893,-0.0143538722902107,-0.0137078971729687,0.190313425092318,-0.0190181178217922,0.0724051637318033,-0.797407961261839,-0.0146081932025107,0.00152592547379986,0.0725831883704133
7.83,3,0.877971739860225,0.02221238848028,-0.0149896745709606,0.149388103885006,0.000152592547379986,0.00151066621906186,0.0142317982523067,-0.165847753329061,-0.0136824650817387,-0.0146031067842647,0.209011098564613,-0.0311593981749931,0.0843277281004262,-0.793399863683991,-0.0153711559394106,0.00152592547379986,0.0951668853826513
7.86,3,0.88685262611774,0.0265867081718396,-0.0549333170567949,0.149540696432386,0.000152592547379986,0.00237027090263578,0.00879950356557919,-0.149693288979766,-0.0139876501764987,-0.0343434959969888,0.221823786126286,-0.0229550055441959,0.097547329121779,-0.789076408174891,-0.0784732606992808,0.00198878953418582,0.103920611184016
7.89,3,0.863760287280902,-0.0840428886786503,-0.12897630746381,0.150003560492772,0.00147506129133986,0.00127160456149988,0.0662760297453739,-0.182246365754163,-0.00991851557969909,-0.0295266579180273,0.0525172683899452,-0.0177312540055544,0.105680511897132,-0.757830540889716,-0.120141198970509,0.00142419710887987,0.17446923225603
7.92,3,0.857361573127435,-0.0319020152389091,-0.110482090721356,0.152195806756798,0.00662251655629139,-0.00142419710887987,0.00340790022481969,-0.133315022227648,-0.0229397462894579,-0.0076041952777693,0.108961251665802,0.0353912981556647,0.109988708151494,-0.747164321827855,-0.112094485305338,-0.00883002207505519,0.244921211381369
7.95,3,0.854426709799493,-0.0154220201218706,-0.151229387290058,0.15329955951618,0.00615965249590543,-0.00812300993886125,0.0304676452935372,-0.152236498102766,-0.0134790083518988,-0.0805434329254026,0.0788547420677307,-0.0562863043102308,0.117730236721905,-0.736467584256518,-0.163803013194169,-0.0235908078249458,0.270887376527197
7.98,3,0.82507299010183,-0.10640786970631,-0.195974608600116,0.154123559272032,-0.00399792474135563,-0.022003845332194,0.0371613717052726,-0.163670766319773,-0.00902330596840317,-0.0588142541784926,-0.0952228359833572,0.00496434420809554,0.118778038880581,-0.706040630308949,-0.193294066184474,-0.0340688294117049,0.30403047781813
8.01,3,0.795902381461023,-0.10945972065391,-0.200710063987142,0.151590522985524,-0.00916572567929116,-0.0299895219784132,0.0153101189204586,-0.156061484623758,-0.0171208838160344,-0.0610115868607644,-0.097623625395469,-0.0201625619271421,0.112770978932056,-0.682856735943683,-0.203263445946633,-0.0369579149754326,0.338287504704937
8.04,3,0.768776512955107,-0.0998362173324788,-0.225847142958871,0.14841659800002,-0.0132145146031068,-0.0339264097008169,0.0189723400575783,-0.15276548560035,-0.00698873867000336,-0.076230150252795,-0.127623320210374,-0.0784529150262968,0.105995869828384,-0.662536495050915,-0.235246843877478,-0.0420189011302021,0.355052339243751
8.07,3,0.725063834548987,-0.160486668497777,-0.231004771060315,0.140430921353801,-0.0366120385347046,-0.0399080375581123,0.0271919919431135,-0.205236976226081,-0.0010478021586759,-0.0160527359843745,-0.252352468438775,-0.0166834518468785,0.0940122684408093,-0.630797245195878,-0.215114800459812,-0.0397808771019623,0.396140425834936
8.1,3,0.708792382580035,-0.0670949430829798,-0.224107587918739,0.12612791324605,-0.0464339121677297,-0.0319783115125991,-0.00312306080304371,-0.119561347290465,-0.00521866512039552,-0.117358928189947,-0.103310240994496,-0.160720643737093,0.0839157282225003,-0.624622333445235,-0.247245704519791,-0.032349620044557,0.440305795464949
8.13,3,0.642078920865505,-0.233878597369304,-0.238247830642618,0.119042532629373,-0.0257016713970356,-0.0271716462701295,0.0768557796970529,-0.154555904822942,-0.0065614795373394,0.0754264961699271,-0.408103681549526,0.0202693767103081,0.0692668436740216,-0.572567929115675,-0.236035238705608,-0.0374665568000326,0.471770378734703
8.16,3,0.575446841842911,-0.236701559495834,-0.223878699097669,0.0948159225236773,-0.105731376079592,-0.032858261869157,-0.0265612760806096,-0.21429080070396,-0.0207831049531541,-0.0530920336517431,-0.444802189194413,-0.0428734193955301,0.0407829014964243,-0.534450310780155,-0.204133223466699,-0.021708833073926,0.568397066153956
8.19,3,0.54795983764153,-0.108839177627898,-0.225719982502721,0.0687785475224057,-0.0676849675995158,-0.0133315022227648,0.0425326293730481,-0.0959603666290272,0.00959298481195512,-0.0249794000061037,-0.278150781782484,-0.0268003377381715,0.021586759036022,-0.526108584856716,-0.249702444532609,-0.0120344655700349,0.617455570136621
8.22,3,0.458632160405286,-0.305856501968444,-0.241243730989512,0.064734845016836,-0.0147556993316446,-0.00712607196264534,0.0403352966907763,-0.203568631041393,9.15555284279916e-05,0.0184077476322723,-0.653202917569506,-0.0231686351105279,-0.00624103518784143,-0.464735862300485,-0.272947375916827,-0.0306100650044252,0.631382183294168
8.25,3,0.351924192022462,-0.371969766329946,-0.227006846318959,0.0290129296751813,-0.160344248786889,-0.0098015279600411,-0.0453403322448398,-0.17663096001058,-0.00572730694499547,-0.0852534562211982,-0.888475193538214,-0.0928576514989675,-0.0531174657429731,-0.404950102237007,-0.210837122714927,-0.00187180191452783,0.642241686249377
8.28,3,0.255826492100793,-0.333338419751579,-0.113177892391736,-0.0452691223893958,-0.265063427635528,0.0043031098361156,-0.00291960407320373,-0.141107414980519,-0.00501520839055554,0.0139418724122847,-0.944776757103183,-0.0447452213100579,-0.11027354757327,-0.366054261909848,-0.106311227759636,0.0658640298674479,0.647236548966948
8.31,3,0.165161086865851,-0.311568549658701,-0.032888780378633,-0.0886511836095258,-0.0899075289162877,0.0710521764783675,0.0626748456272062,-0.168106123030285,-0.0126855271055228,0.17589342936491,-0.789905494348989,-0.0441297647022919,-0.162246569210893,-0.327295754875332,-0.00383007293923765,0.0940478733685313,0.640512304045737
8.34,3,0.0931577501754814,-0.239544867295348,0.0557674896491389,-0.0774407177953429,0.0564643289488408,0.0727968179367453,-0.0279651275165054,-0.190221869563891,-0.0137841934466587,0.0945056510106713,-0.604836166468296,-0.195628732159388,-0.204123050630207,-0.297219763786737,0.0753654591509751,0.0713166702271594,0.633737194942066
8.37,3,0.0722118798384554,-0.0584022543005666,0.0780968657490768,-0.0587023529770806,0.0701162755211036,0.0560167241431928,-0.163406272570981,-0.104770043031098,-0.0295724356822413,0.113361003448592,0.0390433464562924,-0.318155461287271,-0.220791243222348,-0.292906481114129,0.0788801741589607,0.054607786289051,0.626249987283954
8.4,1,0.0679443749300617,0.00795007171849727,0.0637023021128981,-0.0423749504074221,0.0517034414705852,0.0477818130029196,-0.0521154413485112,-0.138320057781711,0.00446587521998759,0.122541988382621,0.251513209428185,-0.302489293089592,-0.209835098320465,-0.277682831303852,0.0601621550136825,0.0416882839442122,0.616987619657989
8.43,1,0.065436770734784,0.00936918240913114,0.0360220140181687,-0.0383973713390505,0.00587481307412946,0.0410016174810022,-0.0461134678182318,-0.13571581163976,-0.0123396506647949,-0.000396740623187963,0.258517207352926,0.0694296090578936,-0.194021423993652,-0.259392071291238,0.0290739666941333,0.0348826563310648,0.625827814569536
8.46,1,0.0589363282163966,-0.0065716523738314,0.02167831456445,-0.043346456292408,-0.0199997965432702,0.0413474939217302,-0.0351064587338888,-0.159418520666117,-0.0256457207963296,-0.0426140120649841,0.246075828323211,-0.021820734275338,-0.180883205664235,-0.239753410443434,0.0243130792158778,0.0487990966521195,0.657129632455418
8.49,1,0.0556555884477269,0.000625629444257942,0.0235806349884538,-0.0479750968962676,-0.0097811822870571,0.0494552446058535,-0.0248725852229377,-0.174026713868628,-0.0132552059490748,-0.0717083244321014,0.310734377066357,-0.053849909970397,-0.165379802850429,-0.220948922187974,0.021866512039552,0.0479903561510056,0.723721020132043
8.52,1,0.0552181564785709,0.0064699240089114,0.0152541683197526,-0.0484583066296375,0.000116987619657989,0.0414899136326182,-0.0162256742047385,-0.167902666300445,-0.0043234555090996,-0.0667643258969899,0.291319518621377,-0.0292367320780053,-0.145069734794153,-0.200196335744296,0.0131076998199408,0.0401470992156743,0.783054088971628
8.55,1,0.0534938606931771,0.000534073915829951,0.0140893785414187,-0.0454725791192358,0.0142724895982747,0.0362458164209927,-0.00595110934781945,-0.166071555731885,-0.00462864060385957,-0.0377564826400545,0.223731192968535,-0.0102593056021811,-0.120660013631601,-0.174057232378104,0.0140232551042207,0.0297606331573433,0.80634479812006
8.58,1,0.0510167750073753,-0.00258390046896776,0.0129398480178228,-0.0382447787916705,0.0271309549241615,0.0228837956887519,-0.0134790083518988,-0.158238471633045,-0.00574765261797947,-0.0115054780724509,0.192317473881242,-0.0064851832636494,-0.102801599169897,-0.15373190506709,0.0125736259041108,0.0144047364726707,0.810836105431277
8.61,1,0.0452131717886898,-0.0132704652038128,0.0166376740826645,-0.0313475956500951,0.0202541174555701,0.0146183660390027,-0.0199489323608102,-0.157567064424573,-0.00776187424339529,0.00552385021515549,0.151351461327962,-0.00599688711203345,-0.0914588864813176,-0.136570329905087,0.0190079449853002,0.010930712810653,0.805424156417534
8.64,1,0.0381176183355205,-0.0185349080884223,0.0207780185349081,-0.0269427574490595,0.0153253781751966,0.0131890825118768,-0.00589007232886746,-0.157933286538285,-0.010895107882931,0.00912503433332316,0.143772698141423,-0.00889614551225318,-0.0825830866420484,-0.120639667958617,0.021515549180578,0.0129296751813308,0.793822036398409
8.67,1,0.0280719422996714,-0.0288450778730633,0.0268969796848455,-0.0197149571214942,0.0243537705618458,0.0021210364085818,-0.0146183660390027,-0.159398174993133,-0.0114240953805149,0.0043081962543616,0.121016062908821,-0.00778221991637928,-0.0747805210526851,-0.102755821405683,0.0290078432569353,-0.000284839421775974,0.798374380728579
8.7,1,0.0181534267199723,-0.0297708059938353,0.0319986571855831,-0.0146539709667247,0.0172531306904304,0.00306711020233772,-0.0128686381623788,-0.161473433637501,-0.011342712688579,-0.00158187607450585,0.143314920499283,-0.0138299712108727,-0.0670186468092898,-0.0851161229285562,0.032802311268451,0.00203965371664581,0.797891170995209
8.73,1,0.00959298481195512,-0.0254066591387677,0.033122755617949,-0.00684123254086937,0.0263578193507696,-0.00530513423057751,-0.0134383170059308,-0.160761335083061,-0.010671305480107,-0.00308745587532172,0.164026815596993,-0.0116936755475529,-0.0575935137994527,-0.0671152887559638,0.033036286507767,-0.0115359965819269,0.806487217830948
8.76,1,0.000274666585283975,-0.0287077445804214,0.0343485824152348,0.00021871598457798,0.0237739188818018,-0.00949634286528113,-0.00822982472202724,-0.161392050945565,-0.0087181208736432,0.00254829554124577,0.159688100833155,-0.0123091321553189,-0.0478682821131016,-0.0479700104780216,0.0355286314483067,-0.0159662668741925,0.810419019135105
8.79,1,-0.0101830093284911,-0.032171595405947,0.0400351980142623,0.00807723217464726,0.0255897701956236,-0.0172785627816604,-0.0129093295083468,-0.159805088452813,-0.00751772616758731,0.0161036001668345,0.176727601957254,-0.010976490574867,-0.0378582110049745,-0.0274259671824295,0.0405947040213223,-0.0241960915962198,0.818018127994629
8.82,1,-0.0201422162541581,-0.0310068056276131,0.0417594937996562,0.0153660695211646,0.0237891781365398,-0.0236620176803898,-0.00403861608732363,-0.160008545182653,-0.00904365164138717,0.032832829777927,0.184926908169805,-0.00970488601336711,-0.0269834487950275,-0.00664286222927539,0.0421765800958281,-0.0291350037130853,0.821838028097374
8.85,1,-0.0312712993764051,-0.0318867559841711,0.0447553941465499,0.0247199926755577,0.0271513005971455,-0.0344808292896308,-0.00780256558936328,-0.159805088452813,-0.00843328145186722,0.0522171697134312,0.216284676656392,-0.00840784936063723,-0.0139825637582527,0.0173701183100884,0.0463220109663177,-0.0404319386374503,0.823262225206254
8.88,1,-0.0396791487370423,-0.0228939685252439,0.0449690237128819,0.0362763349304687,0.0372783593249306,-0.0512456638284453,-0.00291960407320373,-0.160273038931445,-0.00892157760348318,0.0626544999542222,0.271665598518835,-0.00836207159642323,0.0022176783552558,0.0420494196396781,0.043794061098056,-0.0555080823185929,0.827331359803054
8.91,1,-0.0463067517115797,-0.02124596901354,0.0425021108635721,0.0467747021902117,0.032080039877519,-0.0637175613676361,0.00471002329579557,-0.165766370637125,-0.00997955259865108,0.0838902961312703,0.293506678467157,-0.0132958972950428,0.0191656239509262,0.065711437320068,0.043112481053092,-0.0631122775963622,0.823480941190832
8.94,1,-0.0528021078117211,-0.0208543148085981,0.043554999440494,0.0605792413098544,0.0492924792219815,-0.0842361725719983,-0.00239061657561978,-0.161208939888709,-0.0114444410534989,0.0893225908179978,0.352615944903918,-0.00732444227423933,0.0385143589587085,0.0915606148462376,0.0441653696300139,-0.0860062461216061,0.821522670166122
8.97,1,-0.0564897610400708,-0.0120242927335429,0.0419171727652821,0.076189458906827,0.0530259102145451,-0.100594093651133,0.00267545599739575,-0.160171310566525,-0.0131738232571388,0.098391674550615,0.419365011546169,0.0125939715770948,0.0617185989969583,0.118457594531083,0.0410880865911842,-0.102150537634409,0.82921842097232
9,1,-0.0586514887946206,-0.00783817051708528,0.0388754946541744,0.0925270343129775,0.0517492192347992,-0.117109693695893,0.0131127862381868,-0.162999359111301,-0.0156763410341706,0.122597938983327,0.456119469791762,0.0250658691162857,0.0848465427615182,0.143737093213701,0.0395825067903684,-0.117277545498011,0.828129927467676
9.03,1,-0.0591957355469426,-0.00201930804366181,0.0393943093152664,0.11060416475926,0.0571001312295907,-0.135731070894498,0.010956144901883,-0.164382864874213,-0.0124210333567309,0.133976256599628,0.460804060996328,0.0300912503433332,0.110278633991516,0.169667653431806,0.0377971739860225,-0.137592699972533,0.821481978820154
9.06,1,-0.0589414146346426,0.000116987619657989,0.0363678904588967,0.124189987894325,0.0381583096814885,-0.136870428581601,0.00818913337605925,-0.182103946043275,-0.0162053285317545,0.137755465356405,0.481048005615406,0.0275836461480555,0.138248847926267,0.197414064963734,0.0360423596911527,-0.137597786390779,0.806655069633066
9.09,1,-0.0551571194596189,0.011159601631723,0.0312509537034211,0.132989491459904,0.0229600919624419,-0.133945738090152,0.00768049155145929,-0.197607348857082,-0.0256864121422976,0.209336629332357,0.557339192887153,0.097445600756859,0.16950997446618,0.224870550655639,0.0294910529903053,-0.135837885677664,0.776268807031465
9.12,2,-0.0442009745577359,0.0340891750846889,0.0208746604815821,0.134942676066368,0.000885036774803919,-0.120843124688457,-0.0137231564277067,-0.236467584256518,-0.0472121341593677,0.233873510951058,0.75665557827489,0.227118747520371,0.207953123569445,0.252388073366497,0.0134281441694388,-0.120497248247729,0.674459059419538
9.15,2,-0.0188604388561663,0.0705791395814895,-0.00282804854477574,0.130863368633076,-0.021596931872514,-0.10701823989583,0.0316070029806411,-0.215837071850744,-0.0464389985859757,0.213517665130568,0.828180791650136,0.345306761884416,0.258878343048392,0.277993102816858,-0.0021362956633198,-0.113925595873898,0.449181595304219
9.18,2,0.043733024079104,0.189886165959655,0.00616473891415143,0.104668314666178,-0.118076113162633,-0.111982584103926,-0.0331329284544409,-0.245541754407381,-0.0397249265012563,0.254168319752597,0.844426811527858,0.523555202897224,0.306883958454136,0.263222144230476,0.0457574185410118,-0.13551235490992,0.187851598661255
9.21,2,0.15647857091993,0.368826359853918,0.0503453677989034,0.0365408286792606,-0.261228268278044,-0.0858383943194881,-0.0495722322255114,-0.289895321512497,0.032298755862097,0.19459618925545,1.04688660339162,0.309742525508388,0.363333028148239,0.206935839920245,0.0401725313069043,-0.0186366364533423,0.102084414197211
9.24,2,0.299111911374249,0.481266721599984,-0.00776187424339529,-0.0156661681976786,-0.13418988616596,0.00477106031474756,0.00605283771273944,-0.245541754407381,0.0303048799096652,0.150415560370698,1.40396333709728,0.00702943001597135,0.437615080212816,0.138564205857519,-0.00931831822667114,0.0688192388683737,0.0698365225175736
9.27,2,0.425997700938953,0.43326110619424,-0.0142623167617827,-0.0209662160100101,0.010457675913775,0.0347097181107008,-0.12940865301472,-0.0945361695201473,0.00849431847081922,0.13307087415184,0.970569984028647,-0.269193599251279,0.513463749097161,0.0875779493596199,-0.0154525386313466,0.0451470483514918,0.0179652292448703
9.3,2,0.539496037680186,0.384584083580025,-0.0174464145837784,-0.00306202378409172,0.0754112369151891,0.032166508987701,-0.0507115899126153,-0.160252693258461,-0.0021668141727958,-0.0821253089999085,0.503311258278146,-0.13510544145024,0.554541662851853,0.0151880448825546,-0.0203456729839981,0.0246487828201137,0.00498468988107954
9.33,2,0.622618284656311,0.285134434034242,-0.0175176244392224,0.0226854253771579,0.0905484176152837,0.021688487400942,-0.0806604205450606,-0.0695109917498296,-0.00582903530991546,0.0183924883775343,-0.0502741579434594,-0.0524104536067792,0.56851914019186,-0.053895687734611,-0.0176600441501104,0.00914538000630716,0.00231940672017579
9.36,2,0.679087700023398,0.19454532507299,-0.0241910051779738,0.043081962543616,0.0659810174871059,0.0131636504206468,-0.0505488245287433,-0.0691854609820856,-0.00513728242845953,-0.0388805810724204,-0.623076062298451,0.0149642424797306,0.545986307362082,-0.132847071749016,-0.043834752444024,-0.00601214636677145,0.00175990071311584
9.39,2,0.67558824427015,-0.00816878770307525,-0.0987477238278349,0.0504165776543474,0.0118513545131789,-0.00618508458713543,-0.145237586596271,0.0259102145451216,-0.00928779971719515,-0.0361033967101047,-1.33566291289,0.06534012878811,0.489893286945199,-0.185410117903175,-0.101646982228055,-0.0236416720074058,0.00167851802117985
9.42,2,0.606067079683828,-0.230791141493983,-0.0506708985666473,0.04396699931842,-0.0244860174362417,-0.011383404034547,-0.0840378022604043,-0.086682739748324,-0.000742617063915932,-0.0581377605517747,-2.29851171402122,0.0467238380077517,0.37443159276101,-0.231381166010519,-0.0532751447085991,-0.00945056510106713,0.00167851802117985
9.45,2,0.49849950661743,-0.357951597643971,-0.0253201900285857,0.0364696188238166,-0.0231533758557899,-0.010488194423251,-0.00806705933815526,-0.226498204494359,-0.010345774712363,-0.0967741935483871,-2.67021698660237,0.0830713827936644,0.223954995371359,-0.274269844660787,-0.0167444888658305,-0.00638854131697541,0.00167851802117985
9.48,2,0.366171249529506,-0.435488957385988,0.011027354757327,0.032970163070569,-0.00921658986175115,-0.00923693553473515,0.0692871893470056,-0.345601774142684,0.000152592547379986,0.0260933256019776,-2.55539618111718,0.06569617806533,0.0660318816695659,-0.299925738293608,0.0149947609892066,-0.00857570116275521,0.00167851802117985
9.51,2,0.240455336161382,-0.420117801446577,0.0292265592415133,0.0317392498550371,-0.000823999755851924,-0.0087588122196112,0.0966724651834671,-0.358704387544379,0.000966419466739911,-0.155430768761254,-2.31838943652659,-0.0552791934975229,-0.0825525681325724,-0.322906175929034,0.032868434705649,-0.010416984567807,0.00167851802117985
9.54,2,0.136285490483311,-0.350830612099572,0.0353099154637288,0.0317392498550371,0.000152592547379986,-0.0097760958688111,0.0876389863785719,-0.300149540696432,-0.00664286222927539,-0.235480819116794,-1.91688792586037,-0.262133650725832,-0.208492283903521,-0.344726910204372,0.0377208777123325,-0.010986663411359,0.00167851802117985
9.57,2,0.0600502538122705,-0.25922421948912,0.0333567308572649,0.0317595955280211,0.000152592547379986,-0.010366120385347,0.086621702729372,-0.245867285175125,-0.010467848750267,-0.0606606240017904,-1.37687307351909,-0.411186051006602,-0.305286823124892,-0.365245521408734,0.0344655700348928,-0.010986663411359,0.00167851802117985
9.6,2,0.0125329345581428,-0.162663655507065,0.0268664611753695,0.0318918424024171,0.000152592547379986,-0.010773033845027,0.087435529648732,-0.19805495366273,-0.0187281919817703,-0.160405285805841,-0.948688212734357,-0.3471073539435,-0.374543493962422,-0.386974700155644,0.0258796960356456,-0.010986663411359,0.00167851802117985
9.63,2,-0.010335601875871,-0.0797855566067487,0.0181686859747103,0.0317799412010051,0.000152592547379986,-0.010844243700471,0.0740887681712292,-0.175389873958556,-0.0129500208543148,-0.179143650624104,-0.586759036022014,-0.112592954293446,-0.419171727652821,-0.408602150537634,0.0156458225246946,-0.010986663411359,0.00167851802117985
9.66,2,-0.0194097720267342,-0.0313526820683411,0.010620441297647,0.0316578671631011,0.000152592547379986,-0.010915453555915,0.0569170201727348,-0.171971800897244,-0.00289925840021973,-0.221330403556424,-0.34598834192938,0.11037527593819,-0.446089053010651,-0.426475824254077,0.00830103457747124,-0.010986663411359,0.00167851802117985
9.69,2,-0.0231838943652659,-0.0121870581174149,0.00701925717947935,0.0314544104332611,0.000152592547379986,-0.011098564612771,0.043488876003296,-0.178278959522284,0.00523901079337952,-0.277382732627338,-0.188777326782027,0.202042705567593,-0.461572110151474,-0.438154240546892,0.00537125766777551,-0.010986663411359,0.00167851802117985
9.72,2,-0.0251167332987457,-0.00451673940244758,0.00501520839055554,0.0297453739026053,-0.00749738049460331,-0.010884935046439,0.0341298664306569,-0.176447848953724,-0.000661234371979939,-0.317331461531419,-0.076296273689993,0.126926480910672,-0.469222083193457,-0.443881547491887,0.00410982594276762,-0.00839259010589923,0.00167851802117985
9.75,2,-0.0275480412203335,-0.00675476343068738,0.00469985045930357,0.0291451765495773,1.01728364919991e-05,-0.00953194779300312,0.0316883856725771,-0.172338023010956,-0.0153508102664266,-0.330393383587146,0.0272835474715415,-0.0532141076896471,-0.470493687754957,-0.442732016968291,0.00513728242845953,-0.00997955259865108,0.00167851802117985
9.78,2,-0.0287687815993734,-0.00343841873429568,0.00429293699962361,0.0292977690969573,0.000152592547379986,-0.00970488601336711,0.0304269539475692,-0.162775556708477,-0.0319935707673371,-0.282723471785638,0.148574276965646,-0.255643381043936,-0.442396313364055,-0.413393556525366,0.00427259132663961,-0.0100711081270791,0.00167851802117985
9.81,2,-0.0306711020233772,-0.00521866512039552,0.00526952930285552,0.0292977690969573,0.000152592547379986,-0.0097964415417951,0.0294503616443373,-0.160944446139917,-0.043671987060152,-0.204565569017609,0.2619200211595,-0.419965208899197,-0.386059144871364,-0.355194758954639,0.00537125766777551,-0.0100711081270791,0.00167851802117985
9.84,2,-0.0305693736584572,-0.000101728364919991,0.00480157882422356,0.0292977690969573,0.000152592547379986,-0.0098269600512711,0.02208522802413,-0.161595507675405,-0.0514033427940713,-0.130802331614124,0.36690369375693,-0.495223853267006,-0.296700949125645,-0.265897600227872,0.0043641468550676,-0.0100711081270791,0.00167851802117985
9.87,2,-0.0304167811110772,0.000152592547379986,0.00400809757784763,0.0292977690969573,0.000152592547379986,-0.00993886125268309,0.0140283415224667,-0.161066520177821,-0.0562456129642628,-0.0371817173782566,0.451704458754234,-0.515722118798385,-0.218705811741488,-0.188085573900571,0.00396740623187963,-0.0100711081270791,0.00167851802117985
9.9,2,-0.0302641885636972,0.000152592547379986,0.00383515935748365,0.0292062135685293,0.000152592547379986,-0.0101016266365551,-0.0163274025696585,-0.162816248054445,-0.0557166254666789,0.0536820581682791,0.499506617430138,-0.51763461205888,-0.159001434369945,-0.128482924893948,0.00396740623187963,-0.0100711081270791,0.00167851802117985
9.93,2,-0.0301929787082532,0.000152592547379986,0.0043336283455916,0.0281075472273934,-0.00620543026011943,-0.010528885769219,-0.150079856766462,-0.158625039419741,-0.0293486332794173,0.106926684367402,0.397208573666595,-0.49509160639261,-0.129032258064516,-0.0986663411358989,0.00396740623187963,-0.00855535548977121,0.00167851802117985
9.96,2,-0.0352081870988088,-0.0161137730033265,0.00468967762281157,0.0267036957914975,-0.00132246874395988,-0.0086774295276752,-0.415102593056022,-0.148574276965646,0.0179347107353944,0.125726086204616,-0.0572425509404787,-0.550828577532273,-0.118757693207597,-0.0833257037059643,0.00629698578854742,-0.00821965188553524,0.00281787570828374
9.99,2,-0.0525528733176672,-0.0564999338765628,0.0114851323994669,0.0228074994150619,-0.0198675496688742,-0.00686666463209937,-0.0588905504521826,-0.15663116346731,-0.0129500208543148,0.154311756747134,-0.098249254839727,-0.706208482111067,-0.126122826827804,-0.0733563239438053,0.0161849828587705,-0.00399792474135563,0.0131127862381868
10.02,2,-0.0562049216182948,-0.0151371807000946,0.0140690328684347,0.0130212307097588,-0.032980335907061,0.0032756533504237,-0.06483148696351,-0.141331217383343,-0.00265511032441176,0.240536718853318,-0.0851161229285562,-0.999206518753624,-0.132348602760908,-0.075960570085757,0.011373231198055,0.00406913459679963,0.021902116967274
10.05,2,-0.0560726747438988,-0.000559506007059949,0.00894192327646718,0.00463881344035157,-0.0280363373719494,0.00521866512039552,-0.0597043773715425,-0.141290526037375,0.00601214636677145,0.253415529852189,-0.0770694092633849,-1.1368043051444,-0.15032400484227,-0.0940580462050234,0.00805688650166326,0.00536108483128351,0.0303048799096652
10.08,2,-0.0558895636870429,0.000152592547379986,0.00801619515569526,-0.00394706055889564,-0.0307830032247892,0.00584938098289946,-0.0469272947375917,-0.148452202927742,0.0185857722708823,0.267850784834335,-0.087364319793288,-1.15814691610462,-0.169438764610736,-0.113305052847886,0.00793481246375927,0.00912503433332316,0.0359304584897407
10.11,2,-0.0560726747438988,0.000152592547379986,0.00785342977182328,-0.0161137730033265,-0.0431023082166,0.0102338735109511,-0.0408642841883602,-0.144423759676911,0.0337229529709769,0.237098300119022,-0.0710877814060895,-0.973214921516567,-0.187200537125767,-0.13093457848852,0.00793481246375927,0.0164393037710705,0.0452691223893958
10.14,2,-0.0569475386822108,-0.00135298725343588,0.00793481246375927,-0.0288399914548173,-0.04300057985168,0.0162867112236905,-0.0338246813358969,-0.146702475051118,0.0451979125339518,0.192795597196366,-0.0462762332021037,-0.69741915138198,-0.195481226030254,-0.138330230618203,0.00799584948271126,0.021668141727958,0.064963733837906
10.17,2,-0.0592465997294026,-0.00661234371979939,0.00887071342102318,-0.0411389507736442,-0.0383007293923765,0.021851252784814,-0.0339467553738009,-0.154922126936654,0.0373444827621286,0.166244493952249,-0.0183823155410423,-0.469344157231361,-0.196142460402234,-0.136661885433515,0.00963367615792311,0.0250150049338257,0.110904263435774
10.2,2,-0.0594907478052105,-0.000274666585283975,0.0141605883968627,-0.0505589973652354,-0.0308033488977732,0.0258288318531856,-0.0462762332021037,-0.157322916348766,0.0204982655313781,0.153752250740074,0.00472019613228757,-0.346578366445916,-0.199367249570198,-0.139652699362163,0.0233568325856299,0.0308135217342652,0.194260485651214
10.23,2,-0.0580665506963307,0.00686666463209937,0.0344859157078768,-0.0596840316985585,-0.0272835474715415,0.0345774712363048,-0.0567746004618468,-0.154962818282622,0.0168767357402264,0.166946419670197,0.0421257159133681,-0.376923937701549,-0.207129123813593,-0.148838770714438,0.032787052013713,0.0369782606484166,0.291879024628437
10.26,2,-0.0578529211299987,0.00210577715384381,0.032268237352621,-0.0670186468092898,-0.0245572272916857,0.0363373719494207,-0.0398063091931923,-0.153620003865678,0.0143131809442427,0.177811009043652,0.00912503433332316,-0.454400260424614,-0.208471938230537,-0.150395214697714,0.0338246813358969,0.0372732729066846,0.393597216711936
10.29,2,-0.0583412172816146,0.000183111056855983,0.0353404339732048,-0.0772220018107649,-0.0353506068096967,0.0421460615863521,-0.0448113447472559,-0.149388103885006,0.0180567847732983,0.162287260556861,0.00492365286212755,-0.424319182917773,-0.214331492049928,-0.15576647236549,0.0354930265205847,0.0461745048371838,0.514002909431237
10.32,2,-0.0589210689616586,0.000152592547379986,0.0359304584897407,-0.0883205664235359,-0.0373750012716046,0.0509455651519313,-0.0315866573076571,-0.162002421135085,0.0249743135878577,0.114047669911802,-0.00308236945707572,-0.384675639108453,-0.215084281950336,-0.155980101931822,0.0358592486342967,0.0509760836614073,0.651997436445204
10.35,2,-0.0605283771273944,-0.00374360382905566,0.0366425570441806,-0.0990732545955789,-0.0318104597104811,0.0525528733176672,-0.0305693736584572,-0.167088839381085,0.0227362895596179,0.086753949603768,-0.00528987497583951,-0.237820571509954,-0.210547196874905,-0.149805190181178,0.0378124332407605,0.0549943540757469,0.776624856308684
10.38,2,-0.0618203273618783,-0.00207525864436781,0.0405184077476323,-0.102877895443587,-0.00906399731437117,0.0447197892188279,-0.0474562822351756,-0.159154026917325,0.0162256742047385,0.143691315449487,-0.0209560431735181,-0.40827661976989,-0.212215542059592,-0.150191757967874,0.0392976673685924,0.042970061342204,0.840622170679851
10.41,2,-0.0628070925016022,-0.00230923388368379,0.0393485315510524,-0.10391552476577,-0.000244148075807978,0.0403352966907763,-0.0747601753797011,-0.154433830785038,0.0128076011434268,0.268379772331919,-0.0863165176346121,-0.982889289020458,-0.223659983113091,-0.160659606718141,0.0399080375581123,0.0381990010274565,0.856929227576525
10.44,2,-0.0628884751935382,5.08641824599953e-05,0.0386364329966124,-0.103854487746818,0.000152592547379986,0.0381888281909645,-0.0444044312875759,-0.151666819259214,0.0114240953805149,0.330963062430698,-0.158838668986073,-1.36715801466923,-0.235287535223446,-0.172165084790592,0.0385448774681845,0.0376903592028565,0.857641326130965
10.47,2,-0.0631122775963622,0.000152592547379986,0.0386160873236284,-0.101779229102451,0.00790429395428327,0.0351369772433648,-0.0379751986246325,-0.151585436567278,0.0165512049724825,0.341746269112217,-0.188868882310455,-1.39210180974761,-0.242520421969258,-0.179204687643055,0.0386059144871364,0.032797224850205,0.853989277830337
10.5,2,-0.0632648701437422,0.000152592547379986,0.0386669515060884,-0.100182093773207,0.00659199804681539,0.0344553971984008,-0.0360220140181687,-0.150893683685822,0.0154525386313466,0.342661824396496,-0.200506607257302,-1.40542822555213,-0.250465407269509,-0.186946216213467,0.0386059144871364,0.0336924344615009,0.855667795851517
10.53,2,-0.0634683268735822,0.000152592547379986,0.0386669515060884,-0.0969369589322591,0.00930814539017914,0.0311288796655171,-0.0343536688334808,-0.152277189448734,0.0120751569160029,0.32497126173691,-0.210374258654541,-1.33842992441582,-0.252723776970733,-0.189031647694327,0.0386059144871364,0.0293588061159093,0.859268979969685
10.56,2,-0.0636310922574541,0.000152592547379986,0.0386771243425804,-0.0938444166386914,0.00815861486658325,0.0290027568386893,-0.0417594937996562,-0.153904843287454,0.0170395011240984,0.323506373282062,-0.226864426608071,-1.33354696289967,-0.260322885830256,-0.19647816400647,0.0386059144871364,0.0295113986632893,0.857417523728141
10.59,2,-0.0637226477858821,0.000152592547379986,0.0387076428520564,-0.0938444166386914,0.000162765383871985,0.0312611265399131,-0.0387483341980244,-0.15398622597939,0.0163477482426425,0.349172439751376,-0.228990549434899,-1.38303781243324,-0.268135624256111,-0.204189174067405,0.0387686798710084,0.0337229529709769,0.861964781640065
10.62,2,-0.0639261045157221,0.000152592547379986,0.0391349019847204,-0.0919522690511795,0.00790429395428327,0.032359792881049,-0.0377717418947925,-0.15500350962859,0.0119123915321309,0.351898759931232,-0.229336425875627,-1.3266396069216,-0.272621845149083,-0.208482111067029,0.0392162846766564,0.0291350037130853,0.865698212632628
10.65,2,-0.0640481785536261,0.000152592547379986,0.0391755933306884,-0.0916572567929116,0.000233975239315978,0.0309152500991852,-0.0387483341980244,-0.156468398083438,0.011220638650675,0.341868343150121,-0.23535874507889,-1.26176742861212,-0.276935127821691,-0.212703838211208,0.0392162846766564,0.033021027253029,0.86957406333608
