time,Mode,Knee_Angle,Knee_Velocity,Knee_Current,Ankle_Angle,Ankle_Velocity,Ankle_Current,Acc_X,Acc_Y,Acc_Z,Gyro_X,Gyro_Z,Gyro_Y,Shank_Angle,Thigh_Angle,Knee_Ref_Torque,Ankle_Ref_Torque,Filtered_Vertical_Load
0,1,-0.0241299681590218,0.000930814539017914,0.0115207373271889,-0.0387991983804844,-0.0126295765048168,0.0384126305937885,-0.0572018595945107,-0.15184993031607,-0.0178736737164424,0.00054424675232195,0.263771477401044,0.0581937111524806,-0.323882768232266,-0.299523911252174,0.0126397493413088,0.0424614195176041,0.469725638599811
0.03,1,-0.0256558936328216,-0.00314340647602771,0.0178075502792444,-0.0463220109663177,-0.0207322407706941,0.0563219092379528,-0.0504064048178554,-0.155776645201982,-0.0114037497075309,-0.0179347107353944,0.2804193243202,0.0619322285632903,-0.305337687307352,-0.279468164108198,0.0179092786441644,0.0567084770246488,0.556026896979685
0.06,1,-0.0257881405072176,3.56049277219967e-05,0.0161697236040325,-0.0532141076896471,-0.0185196488336843,0.0606402783288064,-0.0377107048758405,-0.160069582201605,-0.010874762209947,-0.0207627592801701,0.282057150995412,0.0488143559068575,-0.279488509781182,-0.253476566871141,0.0158238471633045,0.0625375123345642,0.643320006917529
0.09,1,-0.0259203873816136,0.000152592547379986,0.0157526373078605,-0.0581479333882666,-0.010350861130609,0.0631580553605762,-0.0389110995818964,-0.157567064424573,-0.00847397279783522,-0.0170852788883124,0.287545396282846,0.0427920367035941,-0.253888566749067,-0.227754549801121,0.0157170323801386,0.0626901048819442,0.736772769351278
0.12,1,-0.0260933256019776,0.000152592547379986,0.0156763410341706,-0.0617185989969583,-0.00778221991637928,0.0621611173843603,-0.0415560370698162,-0.157546718751589,-0.00877915789259519,-0.010544145023957,0.309925636565244,0.0536871445865251,-0.233430992563657,-0.207144383068331,0.0157170323801386,0.0625629444257942,0.833170567949461
0.15,1,-0.0244504125085198,0.00623594876959543,0.0148065635141046,-0.06493321532843,-0.00769066438795129,0.064943388164922,-0.0397249265012563,-0.159621977395957,-0.0132552059490748,-0.0178380687887204,0.338536739198991,0.0167851802117985,-0.213746553951638,-0.189067252622049,0.0124820703756829,0.065375733715832,0.923230689413129
0.18,1,-0.0231686351105279,0.00273649301634775,0.010905280719423,-0.0660267952513199,4.06913459679963e-05,0.0610014140242724,-0.0352895697907448,-0.168045086011333,-0.0122175766268909,-0.0189367351298563,0.377335937579475,-0.0386262601601204,-0.192556535538804,-0.169169184443698,0.0122531815546129,0.0613269447920164,0.993621631519517
0.21,1,-0.02175461083814,0.000320444349497971,0.0134128849147008,-0.064816227708772,0.00766523229672129,0.0556657612842189,-0.0257271034882656,-0.166254666788741,-0.00953194779300312,-0.0271462141788995,0.420453505050813,-0.0174006368195644,-0.168462172307505,-0.146488845484787,0.0133976256599628,0.0551113416954049,1.03569648325042
0.24,1,-0.0163833531703645,0.00797550380972727,0.00929797255368714,-0.0577613656015707,0.0311950031027151,0.0436109500412,-0.00505589973652353,-0.166803999959309,-0.00928779971719515,-0.0302489293089592,0.434054587440616,-0.0138655761385947,-0.140319020152389,-0.123706778160955,0.00657673879207739,0.0369324828842026,1.04899238054547
0.27,1,-0.00826034323150324,0.0146641438032167,0.00251269061352377,-0.0393790500605284,0.0660827458520259,0.0182551550848923,-0.010773033845027,-0.158401237016917,-0.0087181208736432,-0.0416170740887682,0.381750948617003,-0.0271360413424075,-0.106626585690888,-0.098152612893053,0.000284839421775974,-0.00726340525528733,1.05242062644327
0.3,1,0.00247199926755577,0.0258033997619556,-0.00770083722444329,-0.0245063631092257,0.0384584083580025,-0.00169377727591784,-0.0239570299386578,-0.159805088452813,-0.00788394828129927,-0.0445010732342499,0.394263537502162,-0.0292570777509893,-0.0839106418042543,-0.0862554806156601,-0.0138299712108727,-0.00935900957263914,1.04106265449995
0.33,1,0.00922676269824315,0.0132653787855668,-0.0128686381623788,-0.0194301176997182,0.00989816990671509,0.00593076367483545,-0.0076601458784753,-0.156387015391502,-0.00835189875993123,-0.0493687754956715,0.342977182327748,-0.0488906521805475,-0.0614846237576423,-0.0706300037639495,-0.0122582679728589,0.0132958972950428,1.0263171280048
0.36,1,0.0123701691742709,0.00174972787662384,-0.0100507624540951,-0.00532039348531551,0.0467136651712597,-0.00501520839055554,-0.000254320912299977,-0.159276100955229,-0.00554419588813949,-0.0490025533819595,0.333964049195837,-0.0278735719880774,-0.0341298664306569,-0.0463983072400077,-0.00806705933815526,-0.0226955982136499,1.02979623808507
0.39,1,0.0172429578539384,0.00884019491154719,-0.00929797255368714,0.0132450331125828,0.0505386516922514,-0.0271004364146855,-0.0148218227688426,-0.164159062471389,-0.00603249203975545,-0.0468459120456557,0.366720582700074,-0.0190435499130222,-0.0127974283069348,-0.0299488306324452,-0.0125024160486668,-0.0485447757398195,1.04111860510066
0.42,1,0.0273038931445255,0.0256253751233456,-0.0210475987019461,0.0256457207963296,0.0281889299193294,-0.0427564317758721,-0.000742617063915932,-0.163101087476221,-0.00534073915829951,-0.053956724753563,0.37224443291523,-0.0204982655313781,0.0087282937101352,-0.0183517970315663,-0.0275276955473495,-0.0421155430768761,1.04365164138717
0.45,1,0.0387585070345164,0.032766706340729,-0.0354319895016327,0.0415662099063082,0.0507929726045513,-0.06569617806533,0.0102440463474431,-0.156916002889086,-0.00709046703492335,-0.0558895636870429,0.400708029419843,-0.00377412233853165,0.0320037436038291,-0.0065411338643554,-0.0386872971790724,-0.0710572628966135,1.04095583971679
0.48,1,0.0484633930478835,0.0269681895402895,-0.0427767774488561,0.0585446740114546,0.0459201839248838,-0.0853399253313802,0.0165918963184505,-0.159072644225389,-0.00460829493087558,-0.06564531388287,0.380860825423953,-0.0101423179825231,0.0556047242652669,0.00723288674581133,-0.043519394512772,-0.0844345428835922,1.03733430992564
0.51,1,0.054424675232195,0.0152694275744906,-0.0402539139988403,0.0745465458133691,0.043183690908536,-0.097323526718955,0.00841293577888323,-0.164443901893165,-0.00489313435265155,-0.0790632852158167,0.356161178421379,-0.0114342682170069,0.0774458042135889,0.0231025116733299,-0.0397656178472243,-0.0995615507471948,1.03268532364879
0.54,1,0.0596229946796065,0.0141504155603707,-0.0420951974038921,0.0893276772362438,0.0472935168513037,-0.109551276182338,0.0186264636168503,-0.155776645201982,-0.00363170262764367,-0.086540320037436,0.406262398144475,-0.0167953530482905,0.100161748100223,0.0406201361125523,-0.0427564317758721,-0.111636707663198,1.03468937243772
0.57,1,0.0666524246955779,0.0206915494247261,-0.0481175166071556,0.105604215623442,0.0444959868160039,-0.127689443647572,0.0138655761385947,-0.166803999959309,-0.00261441897844376,-0.119327372051149,0.456506037578458,-0.04315317239906,0.126173691010264,0.0596128218431145,-0.0497044790999074,-0.128045492924792,1.01482182276884
0.6,1,0.0752382986948251,0.0250150049338257,-0.0566118350779748,0.120192063152969,0.0388805810724204,-0.138055564032919,0.0161036001668345,-0.167861974954477,0.00336720887885169,-0.132043417666148,0.479120253100172,-0.065268918932666,0.154454176458022,0.0792972604551327,-0.0571611682485427,-0.138950773644215,0.999176000244148
0.63,1,0.0841090121158483,0.0267240414644815,-0.0635090182195502,0.134861293374432,0.0461236406547238,-0.150486770226142,0.032380138554033,-0.162856939400413,-0.00530004781233151,-0.137404502497431,0.505600146488846,-0.0469069490646077,0.184138513341675,0.100100711081271,-0.0637531662953581,-0.154413485112054,0.970102033550015
0.66,1,0.0936409599088514,0.0289824111657053,-0.0699382508824936,0.144840845973083,0.0177515996785384,-0.14986622720013,0.0233466597491379,-0.183975747957803,0.0164291309345785,-0.1719005910418,0.477116204311248,-0.0916470839564196,0.213863541571296,0.120314137190873,-0.0705893124179815,-0.148889634896898,0.900387585070345
0.69,1,0.101087476220995,0.02213609220659,-0.0723492131310974,0.148655659657582,0.00287891272723574,-0.139876501764987,0.0386059144871364,-0.180923897010203,0.0086977752006592,-0.169601529994608,0.39168472345144,-0.15352844833725,0.240028077028718,0.138981292153691,-0.0722271390931934,-0.141422772911771,0.760256762393058
0.72,1,0.10666219061861,0.0168869085767184,-0.0731121758679973,0.143457340210171,-0.0277514979501734,-0.114108706930754,0.0443027029226559,-0.171971800897244,0.0156153040152186,-0.161778618732261,0.28085166987111,-0.185227006846319,0.260017700735496,0.153436892808822,-0.0733970152897732,-0.115888953316853,0.533199051891639
0.75,1,0.110609251177506,0.0114851323994669,-0.0732240770694093,0.126936653747164,-0.0645263018687501,-0.076418347727897,0.0429598885057121,-0.17184972685934,0.00963367615792311,-0.147241635385194,0.17485071362448,-0.212825912249112,0.273262733848079,0.162714519689525,-0.0730714845220293,-0.0753400270597451,0.311197241126743
0.78,1,0.111534979298278,0.00195318460646382,-0.0689820042522456,0.100650044251839,-0.0935697500534074,-0.0418510493280842,0.0411287779371522,-0.165746024964141,-0.0151880448825546,-0.122562334055605,0.0893581957457198,-0.105919573554694,0.276589251380963,0.165125481938129,-0.0689820042522456,-0.0292163864050213,0.139378032776879
0.81,1,0.111728263191626,0.000172938220363984,-0.0676086713258258,0.0714031393373414,-0.0903551337219357,-0.00745668914863531,0.021596931872514,-0.148655659657582,-0.0347198909471928,-0.0185654265978983,0.0333465580207729,0.127028209275592,0.264066489659312,0.152419609159622,-0.0675984984893338,-0.000244148075807978,0.0532853175450911
0.84,1,0.109622486037782,-0.00681580044963937,-0.0633462528356782,0.054729860326955,-0.0374767296365246,-0.00467950478631957,-0.0925829849136835,-0.135227515488144,-0.0293893246253853,-0.00097659230323191,-0.19240902940967,0.425946836756493,0.209692678609577,0.100090538244779,-0.0637226477858821,-0.021251055431786,0.0194402905362102
0.87,1,0.0991648101240069,-0.0337127801344849,-0.0496332692444634,0.0442111473942279,-0.0255846837773776,-0.0150456251716666,-0.129327270322784,-0.1308328501236,-0.0148218227688426,-0.00132246874395988,-0.527064831486963,0.642170476393933,0.160171310566525,0.0610878831344544,-0.0468967762281157,-0.0230719931638539,0.00668355357524339
0.9,1,0.0790734580523087,-0.065177363404238,-0.0273344116540015,0.0303252255826492,-0.043580431531724,-0.00971505884985911,-0.110365103101698,-0.144383068330943,-0.0021668141727958,0.043977172154912,-0.780032756533504,0.633828750470494,0.0968352305673391,0.0178431552069664,-0.0175379701122064,0.000986765139723909,0.00363170262764367
0.93,1,0.0593076367483545,-0.0622374136580503,-0.00946073793755913,0.0189519943845943,-0.0243741162348298,0.00380464084800765,-0.0586057110304066,-0.162938322092349,0.00727357809177933,0.0705282753990295,-0.848394217759738,0.508468886379589,0.0472426526688437,-0.0118615273496709,-0.00410982594276762,0.00186162907803583,0.00203456729839981
0.96,1,0.0476495661285236,-0.0341095207576729,-0.00637836848048341,0.0137943662831507,-0.010742515335551,-0.00223802402823979,-0.0306914476963612,-0.17510503453678,0.00934883673614714,0.0745872371593371,-0.833012888983835,0.357381918800419,-0.00312306080304371,-0.0506200343841873,-0.00983713288776309,-0.00506607257301553,0.00169886369416384
0.99,1,0.0418815678375601,-0.010834070863979,-0.0146285388754947,0.0102643920204271,-0.00645975117241941,-0.00287891272723574,-0.0206813765882341,-0.178034811446476,0.00593076367483545,0.0908230842005676,-0.867112236905016,0.167068493708101,-0.053926206244087,-0.0957467370626952,-0.0190028585670543,-0.00471002329579557,0.00167851802117985
1.02,1,0.0304371267840612,-0.0250556962797937,-0.0148218227688426,0.00918607135227515,0.00344859157078768,-0.00128177739799188,0.00466933194982757,-0.187027598905403,0.00426241849014761,0.115624459568061,-0.828984445733004,-0.0355133721935687,-0.105197302163762,-0.135573391928872,-0.0087282937101352,-0.00829086174097924,0.00167851802117985
1.05,1,0.0124006876837469,-0.0457675913775038,0.00815861486658325,0.00705994852544735,-0.00289925840021973,-0.000345876440727968,0.0198472039958902,-0.185033722952971,-0.00314340647602771,0.12808618427076,-0.802972502822962,-0.130649739066744,-0.15449486780399,-0.166783654286325,0.0142114525793227,-0.00237027090263578,0.00167851802117985
1.08,1,0.00395723339538764,-0.0165715506454665,0.0129907122002828,0.00645975117241941,-0.00373343099256366,-0.00118004903307189,0.0523595894243192,-0.186498611407819,-0.00916572567929116,0.149845881527146,-0.585446740114546,-0.153762423576566,-0.196254361603646,-0.200130212307098,0.00832138025045523,-0.00469985045930357,0.00167851802117985
1.11,1,0.000813826919359925,-0.000752789900407931,0.000681580044963937,0.00622577593310343,1.01728364919991e-05,-0.00190232042400382,0.0337636443169449,-0.177790663370668,-0.0076601458784753,0.168675801873836,-0.512202317372153,-0.157556891588082,-0.228115685496587,-0.228797265541551,0.00021362956633198,-0.00640888698995941,0.00167851802117985
1.14,1,-0.00367239397361166,-0.00659199804681539,0.00252286345001577,0.00589007232886746,0.00255338195949177,-0.00171920936714784,0.0444654683065279,-0.17286701050854,-0.00420138147119561,0.189682709229815,-0.441755424665059,-0.195603300068158,-0.256742047385072,-0.252886542354605,0.00482192449720756,-0.00801619515569526,0.00167851802117985
1.17,1,-0.00644957833592741,-0.00180059205908383,0.00621560309661143,0.0054729860326955,0.00388602353994364,0.000610370189519944,0.0550452182582069,-0.169489628793196,-0.00245165359457177,0.194097720267342,-0.340047405418053,-0.243588569800918,-0.280017497278766,-0.273364462212999,0.00518814661091952,-0.00560523290709148,0.00167851802117985
1.2,1,-0.00825017039501124,0.000122074037903989,0.00494399853511155,0.00471002329579557,-0.000966419466739911,0.000722271390931934,0.0565914894049908,-0.169652394177068,-0.00277718436231574,0.206040630308949,-0.250109357992289,-0.269844660786767,-0.297677541428877,-0.289203568631041,0.00496434420809554,-0.00155644398327586,0.00167851802117985
1.23,1,-0.0098167872147791,0.000152592547379986,0.00533056632180751,0.0043031098361156,-0.00475071464176356,-9.15555284279916e-05,0.0605792413098544,-0.167495752840765,0.00116987619657989,0.213700776187424,-0.151361634164454,-0.267403180028687,-0.309610278633992,-0.299569689016388,0.00585955381939146,-0.00154627114678386,0.00167851802117985
1.26,1,-0.011144342376985,0.000152592547379986,0.00620543026011943,0.00451673940244758,0.000137333292641987,-0.00159204891099785,0.0581377605517747,-0.165868099002045,0.00645975117241941,0.208660135705639,-0.0588702047791986,-0.228756574195583,-0.315652943510239,-0.304300057985168,0.00665303506576739,-0.00508133182775353,0.00167851802117985
1.29,1,-0.0121107618437249,0.000152592547379986,0.00690226955982136,0.00460829493087558,0.00302641885636972,-0.00159713532924385,0.0537430951872311,-0.164871161025829,0.0164291309345785,0.19075594347972,0.0304778181300292,-0.167953530482905,-0.316217535935545,-0.303882971688996,0.00733461511073133,-0.00725323241879533,0.00167851802117985
1.32,1,-0.0128177739799188,0.000152592547379986,0.0075584175135553,0.00305185094759972,-0.00348928291675568,-0.00177515996785384,0.0473342081972716,-0.165949481693981,0.0271919919431135,0.155954669840592,0.122837000640889,-0.115924558244575,-0.311446475620797,-0.298389639983317,0.00782799768059328,0.00194809818821782,0.00167851802117985
1.35,1,-0.0132857244585508,0.000152592547379986,0.00787377544480728,0.00303150527461572,0.000152592547379986,0.000610370189519944,0.0315459659616891,-0.168736838892788,0.0347605822931608,0.119276507868689,0.19190038758507,-0.140049439985351,-0.30174158960743,-0.288237149164301,0.00801110873744926,-0.00228888821069979,0.00167851802117985
1.38,1,-0.0135349589526048,0.000152592547379986,0.00825525681325724,0.00296538183741773,0.000152592547379986,0.000620543026011943,0.00847397279783522,-0.169774468214972,0.0459710481073438,0.0854670857875301,0.231991536200039,-0.229438154240547,-0.285907569607634,-0.272199672434665,0.00839259010589923,-0.00228888821069979,0.00167851802117985
1.41,1,-0.0135807367168188,0.000152592547379986,0.00848923205257322,0.00289925840021973,0.000152592547379986,0.000610370189519944,-0.0165715506454665,-0.168004394665365,0.0446078880174159,0.0447909990742719,0.220104576759138,-0.279285053051342,-0.263527329325236,-0.249794000061037,0.00839259010589923,-0.00228888821069979,0.00167851802117985
1.44,1,-0.0135807367168188,0.000152592547379986,0.00834172592343923,0.00287891272723574,0.000152592547379986,0.000610370189519944,-0.0428785058137761,-0.166987111016165,0.032135990478225,0.0011190120141199,0.188253425702689,-0.200328582618692,-0.251340271207821,-0.23759676910713,0.00839259010589923,-0.00228888821069979,0.00167851802117985
1.47,1,-0.0135807367168188,0.000152592547379986,0.00836207159642323,0.00297555467390973,0.000152592547379986,0.000630715862503942,-0.0506708985666473,-0.159744051433861,0.0159001434369945,-0.0276802880947295,0.15563931190934,-0.0506454664754173,-0.24169133579516,-0.227932574439731,0.00839259010589923,-0.00228888821069979,0.00167851802117985
1.5,1,-0.0122582679728589,0.00559506007059949,0.00683614612262337,0.00317901140374971,0.000152592547379986,0.000610370189519944,-0.0573239336324147,-0.148879462060406,0.00452691223893958,-0.0471765292316457,0.109210486159856,0.065080721457564,-0.239677114169744,-0.227189957375815,0.00549333170567949,-0.00228888821069979,0.00167851802117985
1.53,1,-0.0129551072725608,-0.0010935799228899,0.00552893663340149,0.00320444349497971,0.000152592547379986,0.000630715862503942,-0.0457065543585518,-0.14676351207007,-0.010773033845027,-0.0465559862056337,0.0672526220486058,0.116804508601133,-0.241645558030946,-0.228431043427839,0.00809757784763126,-0.00228888821069979,0.00167851802117985
1.56,1,-0.0116275521103549,0.00307219662058372,0.00515762810144353,0.00298064109215573,0.000152592547379986,0.000630715862503942,-0.0269071525213375,-0.163630074973805,-0.0124617247026989,-0.02167831456445,0.0696635842972096,0.0445163324889879,-0.231716869614755,-0.219906206447544,0.00494399853511155,-0.00228888821069979,0.00167851802117985
1.59,1,-0.011129083122247,0.00175990071311584,0.0065309610278634,0.00238044373912778,0.000152592547379986,0.000610370189519944,-0.0183619698680583,-0.165461185542365,-0.00493382569861955,-0.0240384126305938,0.0735292621641692,-0.0293588061159093,-0.21724092328664,-0.205898210598061,0.00664286222927539,-0.00169886369416384,0.00350962858973968
1.62,1,-0.00855535548977121,0.00691752881455936,0.00185145624154383,0.00154627114678386,0.000152592547379986,0.000610370189519944,-0.0195827102470982,-0.161188594215725,-0.00249234494053977,-0.0363271991129287,0.0862554806156601,0.00520849228390352,-0.206569617806533,-0.197780287077446,0.00145471561835587,-0.00097659230323191,0.0295419171727653
1.65,1,-0.00735496078371532,0.000579851680043947,0.00424207281716361,-0.000915555284279916,-0.00753807184057131,0.00305185094759972,-0.0188095746737063,-0.160863063447981,0.00202439446190781,-0.0118411816766869,0.0986154769534389,0.00243130792158778,-0.188990956348359,-0.181402020325327,0.00421155430768761,0.00614439324116743,0.0624205247149063
1.68,1,-0.00518814661091952,0.000152592547379986,0.00342824589780368,-0.00202439446190781,1.01728364919991e-05,0.00569678843551948,-0.0138452304656107,-0.162653482670573,0.000396740623187963,0.0190333770765302,0.08737449262978,-0.00517797377442752,-0.169296344899848,-0.163894568722597,0.00338755455183569,0.00223802402823979,0.076428520564389
1.71,1,-0.00125125888851588,0.00406913459679963,0.00166834518468785,-0.0021362956633198,0.000152592547379986,0.00228888821069979,-0.00770083722444329,-0.163548692281869,-0.00289925840021973,0.0332143111463769,0.0450758384960479,-0.00130212307097588,-0.15098523921425,-0.149591560614846,0.000152592547379986,0.00198370311593982,0.0748313852351451
1.74,1,0.000996937976215908,-0.00133264158045188,0.000376394950203965,-0.00230923388368379,0.000152592547379986,0.00208543148085981,-0.00786360260831528,-0.163833531703645,-0.000335703604235969,0.0559709463789788,-0.00145471561835587,-0.00087486393831192,-0.139306822921435,-0.140202032532731,0.00011190120141199,0.00198370311593982,0.0585039826654866
1.77,1,0.00240078941211178,-0.000630715862503942,-0.00155644398327586,-0.00244148075807978,0.000152592547379986,0.00208543148085981,-0.00770083722444329,-0.168309579760125,-0.00257372763247576,0.0659708446506139,-0.0445061596524959,0.00600197353027945,-0.135339416689556,-0.137638477736747,-0.00180059205908383,0.00251269061352377,0.022064882351146
1.8,1,0.00152592547379986,-0.00133264158045188,0.000457777642139958,-0.00223802402823979,0.000152592547379986,0.0021464684998118,-0.000742617063915932,-0.172093874935148,-0.0115258237454349,0.0293893246253853,-0.0608945992411064,0.0203355001475061,-0.139021983499659,-0.140456353445031,0.000366222113711966,0.00206508580787581,0.00584938098289946
1.83,1,-9.15555284279916e-05,0.000132246874395988,0.000457777642139958,-0.00053916033407595,0.00232957955666779,-0.00129195023448388,-5.08641824599953e-05,-0.17103589993998,0.0143945636361787,-0.00253303628650777,0.0496739605904314,-0.00640888698995941,-0.136560157068595,-0.136295663319803,0.000183111056855983,-0.0021668141727958,0.00247199926755577
1.86,1,-0.00172938220363984,0.000152592547379986,0.000457777642139958,0.000284839421775974,0.00557471439761549,0.000925728120771915,-0.000661234371979939,-0.158869187495549,0.0257067578152816,-0.0232957955666779,0.10427157404299,-0.0968860947497991,-0.11327453433841,-0.111311176895454,0.000915555284279916,-0.00175990071311584,0.00179041922259184
1.89,1,-0.00283822138126774,0.000152592547379986,0.000457777642139958,0.000427259132663961,-0.00154627114678386,-0.000172938220363984,-0.00879950356557919,-0.145644500055951,0.0181381674652343,-0.054272082684815,0.114108706930754,-0.169428591774244,-0.0971811070080671,-0.0941394288969593,0.00161748100222785,0.0021769870092878,0.00163782667521185
1.92,1,-0.00350962858973968,0.000152592547379986,0.000457777642139958,0.000773135573391929,-0.00200404878892382,-0.00188197475101983,-0.0139266131575467,-0.134169540492976,0.00536108483128351,-0.0858587399924721,0.10498367259743,-0.195328633482874,-0.086682739748324,-0.0829391359192684,0.00198370311593982,-0.00158696249275185,0.00152592547379986
1.95,1,-0.00380464084800765,0.000152592547379986,0.000457777642139958,0.0011393576871039,0.00414034445224362,0.000996937976215908,-0.0129907122002828,-0.131076998199408,-0.00888088625751518,-0.0957874284086632,0.0824915311136204,-0.166865036978261,-0.0810775068412325,-0.0770388907539089,0.00226854253771579,-0.00188197475101983,0.00161748100222785
1.98,1,-0.00407930743329162,0.000152592547379986,0.000457777642139958,0.0010681478316599,0.000152592547379986,0.000569678843551948,-0.0306914476963612,-0.136529638559119,-0.0298369294310333,-0.0583717357910906,0.043621122877692,-0.0625425987528102,-0.0793888159835607,-0.0751263974934131,0.00259407330545976,-0.000396740623187963,0.00167851802117985
2.01,1,-0.00474054180527156,0.000152592547379986,0.00119022186956389,0.00102745648569191,0.000152592547379986,0.000610370189519944,-0.0685750907925657,-0.195776238288522,-0.0667439802240059,-0.0291960407320373,-0.00908434298735517,0.0943327127903073,-0.0833460493789483,-0.0783715323343608,0.00283822138126774,-0.000305185094759972,0.00484227017019155
2.04,1,-0.00565609708955148,0.000152592547379986,0.00314340647602771,0.00043743196915596,0.000152592547379986,0.000640888698995941,-0.0232042400382499,-0.171768344167404,-0.00444552954700359,-0.0742922249010692,0.101067130548011,0.0253507085380617,-0.0834884690898363,-0.0775780510879849,0.00341807306131169,-3.05185094759972e-05,0.0579343038219347
2.07,1,-0.0043539740185756,0.00319427065848771,0.000834172592343923,-0.000142419710887987,0.000152592547379986,0.000620543026011943,-0.0191351054414502,-0.160334075950397,0.0164291309345785,0.0143945636361787,0.172694072288176,-0.0813725190995005,-0.0836715801466923,-0.0791243222347687,0.000905382447787917,0.00021362956633198,0.115899126153345
2.1,1,-0.000467950478631957,0.0054831588691875,0.00116987619657989,-0.000549333170567949,0.000152592547379986,0.000620543026011943,0.00381481368449965,-0.164240445163325,-0.0054628131962035,-0.00935900957263914,0.174769330932544,0.0536820581682791,-0.0709351888587095,-0.0703044729962055,-0.000223802402823979,0.000610370189519944,0.161758273059277
2.13,1,0.00573747978148747,0.0087486393831192,-0.00549333170567949,-0.000752789900407931,0.000152592547379986,0.000610370189519944,0.0103254290393791,-0.160374767296365,0.0021871598457798,0.011078218939787,0.0500096641946674,-0.0272225104525895,-0.0591448713644826,-0.064811141290526,-0.0076092816960153,0.000610370189519944,0.193233029165522
2.16,1,0.00854518265327921,0.000742617063915932,-0.00605283771273944,-0.00076296273689993,0.000152592547379986,0.000620543026011943,-0.00554419588813949,-0.160578224026205,0.00116987619657989,0.0136621194087547,0.0200811792352062,0.0159713532924385,-0.0515355896684673,-0.0600197353027945,-0.00506607257301553,0.000610370189519944,0.232713807590971
2.19,1,0.010650959807123,0.000152592547379986,-0.0054017761772515,-0.000691752881455936,0.000152592547379986,0.000610370189519944,-0.00737530645669932,-0.159764397106845,-0.00127160456149988,0.0206101667327901,0.0358287301248207,0.0237027090263578,-0.0487380596331675,-0.0593279824213385,-0.00582903530991546,0.000610370189519944,0.275480412203335
2.22,1,0.0123650827560249,0.000152592547379986,-0.00621051667836543,-0.000457777642139958,0.000152592547379986,0.000610370189519944,-0.00578834396394747,-0.160293384604429,0.000518814661091952,0.0209865616829941,0.0400809757784763,0.0121667124444309,-0.0447808262377799,-0.0570645263018687,-0.00690735597806736,0.000610370189519944,0.316456597593107
2.25,1,0.0138960946480707,0.000152592547379986,-0.00726340525528733,-4.57777642139958e-05,0.000152592547379986,0.000610370189519944,-0.00568661559902748,-0.162551754305653,-0.00121056754254789,0.0166275012461725,0.0415000864691102,0.00623594876959543,-0.0406303089490443,-0.054450107323425,-0.00788903469954527,0.000198370311593982,0.351741080965606
2.28,1,0.0152389090650146,0.000152592547379986,-0.00828068890448724,0.000208543148085981,0.000152592547379986,0.000610370189519944,-0.00304167811110772,-0.161168248542741,-0.00011190120141199,0.0155084892320526,0.0370240384126306,-0.000183111056855983,-0.0362000386567787,-0.0513677378663493,-0.0086977752006592,0.000152592547379986,0.368297372356334
2.31,1,0.0165410321359905,0.000152592547379986,-0.00896735536769718,0.000574765261797947,0.000152592547379986,0.000610370189519944,-0.00312306080304371,-0.160171310566525,-0.000417086296171962,0.0182704143396303,0.0287535223446354,-0.00195827102470982,-0.0315408795434431,-0.0479649240597756,-0.00944547868282113,1.52592547379986e-05,0.376216925565355
2.34,1,0.0176091799676504,0.000152592547379986,-0.0098320464695171,0.00114444410534989,0.000152592547379986,0.000610370189519944,-0.00289925840021973,-0.160517187007253,-0.000478123315123956,0.0204474013489181,0.0226396476129439,-2.03456729839981e-05,-0.0281584114098534,-0.0457065543585518,-0.0102084414197211,-0.000473036896877956,0.379278949349447
2.37,1,0.0184942167424543,0.000152592547379986,-0.010452589495529,0.00177007354960784,0.000152592547379986,0.000610370189519944,-0.0022278511917478,-0.159967853836685,-0.00121056754254789,0.02223782057151,0.0176651305683564,-0.000264493748791976,-0.0251930295724357,-0.0436109500412,-0.010727256080813,-0.000991851557969909,0.379624825790175
2.4,1,0.0192164881333862,0.000152592547379986,-0.010813725190995,0.00243130792158778,0.000152592547379986,0.000620543026011943,-0.00208543148085981,-0.159967853836685,-0.0010478021586759,0.0172785627816604,0.011027354757327,0.00135298725343588,-0.0225480920845159,-0.0416730246894742,-0.011123996704001,-0.00154118472853786,0.382564775536363
2.43,1,0.0198472039958902,0.000152592547379986,-0.011398663289285,0.00302133243812372,0.000152592547379986,0.000610370189519944,-0.00196335744295582,-0.160354421623381,-0.00318409782199571,0.0148269091870886,0.00314340647602771,0.00389110995818964,-0.0206355988240201,-0.0403759880367443,-0.0114647867264829,-0.0022278511917478,0.386984872992136
2.46,1,0.0205542161320841,0.000152592547379986,-0.0116631570380769,0.00357575202693767,0.000152592547379986,-0.0010427157404299,-0.00224819686473179,-0.160395112969349,-0.00247199926755577,0.0138706625568407,-0.00360118411816767,0.00242622150334178,-0.0193589078442742,-0.0398266548661763,-0.0120548112430189,-0.00273140659810175,0.38990447706534
2.49,1,0.0211493270668661,0.000152592547379986,-0.0122837000640889,0.00402335683258563,0.000152592547379986,-0.00250760419527777,-0.00167851802117985,-0.160171310566525,-0.0021871598457798,0.010839157282225,-0.00766523229672129,0.00177007354960784,-0.0187688833277383,-0.0398470005391603,-0.0124362926114689,-0.00318918424024171,0.39242225409711
2.52,1,0.021581672617776,0.000152592547379986,-0.0123498235012869,0.0043285419273456,0.000152592547379986,-0.00249234494053977,-0.00249234494053977,-0.160578224026205,-0.00188197475101983,0.00895718253120518,-0.0123803420107629,0.00346893724377168,-0.0181941180659403,-0.0396689759005503,-0.0125583666493728,-0.00337229529709769,0.391435488957386
2.55,1,0.021841079948322,0.000152592547379986,-0.0128177739799188,0.00453708507543158,0.000152592547379986,-0.00300098676513972,-0.00411999877925962,-0.159967853836685,-0.00208543148085981,0.011001922666097,-0.0143030081077507,0.00137841934466587,-0.0193080436618142,-0.0410626544999542,-0.0129703665272988,-0.00366222113711966,0.391613513595996
2.58,1,0.022115746533606,0.000152592547379986,-0.0129601936908068,0.00478631956948556,0.000152592547379986,-0.00335703604235969,-0.00371308531957966,-0.159906816817733,-0.00296029541917173,0.00947599719229713,-0.010737428917305,-0.00160730816573585,-0.0203049816380301,-0.0423342590614541,-0.0129703665272988,-0.00366222113711966,0.391669464196702
2.61,1,0.0223700674459059,0.000152592547379986,-0.0128228603981648,0.00492873928037355,0.000152592547379986,-0.00349945575324768,-0.00426241849014761,-0.160089927874589,-0.0022278511917478,0.011342712688579,-0.0043895789462976,-0.0011139255958739,-0.0210832036296681,-0.043387147638376,-0.0129703665272988,-0.00407422101504562,0.394263537502162
2.64,1,0.0226803389589119,0.000152592547379986,-0.0132602923673208,0.00503555406353954,0.000152592547379986,-0.00376903592028565,-0.00452691223893958,-0.159906816817733,-0.00243130792158778,0.011322367015595,-0.00170903653065584,-0.00151575263730786,-0.021861425621306,-0.0444349497970519,-0.0134128849147008,-0.00411999877925962,0.398063091931923
2.67,1,0.0228736228522599,0.000152592547379986,-0.0134484898424228,0.00516271451968953,0.000152592547379986,-0.00390128279468164,-0.00426241849014761,-0.159764397106845,-0.00281787570828374,0.0118615273496709,0.00127160456149988,-0.00263476465142776,-0.022014018168686,-0.0447808262377799,-0.0134281441694388,-0.00411999877925962,0.403057954649495
2.7,1,0.0229855240536719,0.000152592547379986,-0.0135603910438348,0.00529496139408551,0.000152592547379986,-0.00407930743329162,-0.00397757906837163,-0.159988199509669,-0.00267545599739575,0.0132602923673208,0.00466424553158157,-0.00256864121422976,-0.02213609220659,-0.0450097150588499,-0.0134281441694388,-0.00411999877925962,0.408424125899024
2.73,1,0.0231737215287739,0.000152592547379986,-0.0133925392417168,0.00531530706706951,0.000152592547379986,-0.00395214697714164,-0.00391654204941964,-0.159784742779829,-0.00308236945707572,0.0134077984964548,0.00509150466424553,-0.00186162907803583,-0.02178004292937,-0.0448622089297159,-0.0134281441694388,-0.00411999877925962,0.418256172368542
2.76,1,0.0234127831863358,0.000152592547379986,-0.0138452304656107,0.00526444288460952,0.000152592547379986,-0.00428785058137761,-0.00375377666554765,-0.160171310566525,-0.00171920936714784,0.0151524399548326,0.00953194779300312,-0.00203965371664581,-0.021464684998118,-0.0447859126560259,-0.0138706625568407,-0.00411999877925962,0.424003824986521
2.79,1,0.0236416720074058,0.000152592547379986,-0.0136621194087547,0.00534073915829951,0.000152592547379986,-0.00412508519750562,-0.00407930743329162,-0.159927162490717,-0.00249234494053977,0.0175684886216824,0.0167902666300445,-0.000747703482161931,-0.0207068086794641,-0.0442721844131799,-0.0138859218115787,-0.00411999877925962,0.43038727988525
2.82,1,0.0238807336649678,0.000152592547379986,-0.0141961933245847,0.0054170354319895,0.000152592547379986,-0.00418612221645762,-0.00454725791192358,-0.160578224026205,-0.00291960407320373,0.0204474013489181,0.0185501673431603,-0.000518814661091952,-0.0201829076001261,-0.043961912900174,-0.0138859218115787,-0.00442518387401959,0.437238685262612
2.85,1,0.0240841903948078,0.000152592547379986,-0.0137994527013967,0.00569170201727348,0.000152592547379986,-0.0043031098361156,-0.00367239397361166,-0.160150964893541,-0.00336720887885169,0.02188177129429,0.0230313018178859,-0.00166325876644185,-0.0195115003916542,-0.043504135258034,-0.0141504155603707,-0.00473036896877956,0.446684163945433
2.88,1,0.0241096224860378,0.000152592547379986,-0.0143894772179327,0.00611896114993744,0.000152592547379986,-0.00459812209438358,-0.0033061718598997,-0.160171310566525,-0.00391654204941964,0.021530808435316,0.0254015727205217,-0.00086469110181992,-0.0181229082104963,-0.0421714936775821,-0.0144962920010987,-0.00511185033722953,0.448850978118229
2.91,1,0.0241248817407758,0.000152592547379986,-0.0144657734916227,0.00663777581102939,0.000152592547379986,-0.00485752942492955,-0.00232957955666779,-0.160476495661285,-0.00468967762281157,0.0229651783806879,0.0268257698294015,-0.000249234494053977,-0.0164189580980865,-0.0404980620746483,-0.0144962920010987,-0.00550859096041749,0.447930336415703
2.94,1,0.0242622150334178,0.000152592547379986,-0.0144149093091627,0.00719219539984334,0.000152592547379986,-0.00530513423057751,-0.00200404878892382,-0.160110273547573,-0.00499486271757154,0.0229143141982279,0.0267799920651875,-0.000167851802117985,-0.0141555019786167,-0.0383058158106225,-0.0144962920010987,-0.00599688711203345,0.446969003367209
2.97,1,0.0242622150334178,0.000152592547379986,-0.0143793043814407,0.00927762688070314,0.00766523229672129,-0.00663777581102939,-0.00167851802117985,-0.160028890855637,-0.00534073915829951,0.0204830062766401,0.0278125349691254,0.00147506129133986,-0.0122735272275969,-0.0363831497136347,-0.0144962920010987,-0.0128228603981648,0.448449151076795
3,1,0.0242622150334178,0.000152592547379986,-0.0143996500544247,0.010437330240791,0.000473036896877956,-0.010427157404299,-0.000946073793755913,-0.160028890855637,-0.00493382569861955,0.0195115003916542,0.0241960915962198,0.00192775251523382,-0.0102033550014751,-0.0343638416699728,-0.0144962920010987,-0.00959298481195512,0.452737001658172
3.03,1,0.0242622150334178,0.000152592547379986,-0.0143436994537187,0.010661132643615,0.000152592547379986,-0.00954720704774112,-0.00153609831029186,-0.160578224026205,-0.00570696127201147,0.0200811792352062,0.0206864630064801,0.00340281380657369,-0.00850449130731122,-0.032634459466333,-0.0144962920010987,-0.00926745404421115,0.45432905056917
3.06,1,0.0241350545772678,0.000152592547379986,-0.0144199957274087,0.010945972065391,0.000152592547379986,-0.00943021942808313,-0.0010681478316599,-0.159764397106845,-0.00574765261797947,0.0183874019592883,0.022258166244494,0.00115970336008789,-0.00721762749107334,-0.0313272499771111,-0.0144962920010987,-0.00961333048493912,0.460615863521226
3.09,1,0.0241096224860378,0.000152592547379986,-0.0143894772179327,0.011368144779809,0.000152592547379986,-0.00949634286528113,-0.000356049277219967,-0.159560940377005,-0.00686666463209937,0.0189062166203803,0.0208644876450901,0.00172938220363984,-0.00562557858007548,-0.0296945097201453,-0.0144962920010987,-0.00996429334391308,0.468062379833369
3.12,1,0.0241096224860378,0.000152592547379986,-0.0144098228909167,0.0118259224219489,0.000152592547379986,-0.00974049094108911,-0.000254320912299977,-0.159967853836685,-0.00635802280749942,0.0181534267199723,0.0196590065207882,-0.00136316008992787,-0.00406913459679963,-0.0280668558814254,-0.0143538722902107,-0.010361033967101,0.471622872605569
3.15,1,0.0240333262123478,0.000152592547379986,-0.0140639464501887,0.0122837000640889,0.000152592547379986,-0.010416984567807,-0.00021362956633198,-0.160232347585477,-0.00678528194016338,0.0175634022034364,0.0203456729839981,-0.00163782667521185,-0.00260424614195176,-0.0265409304076256,-0.0138859218115787,-0.010727256080813,0.47694835250913
3.18,1,0.0239570299386578,0.000152592547379986,-0.0137282428459527,0.0128076011434268,0.000783308409883928,-0.010925626392407,0.000478123315123956,-0.159560940377005,-0.00645975117241941,0.0158035014903205,0.0202083396913561,-0.00115461694184189,-0.00115461694184189,-0.0249590543331197,-0.0138859218115787,-0.011017181920835,0.47730440178635
3.21,1,0.0239570299386578,0.000152592547379986,-0.0140690328684347,0.0153406374299346,0.00735496078371532,-0.0137231564277067,-5.08641824599953e-05,-0.160578224026205,-0.0064800968454034,0.0163477482426425,0.0150049338256986,-0.00147506129133986,7.12098554439934e-05,-0.0237434003723258,-0.0138859218115787,-0.0191859696239102,0.478540401420128
3.24,1,0.0238451287372458,0.000152592547379986,-0.0139266131575467,0.0155440941597746,0.000152592547379986,-0.0149540696432386,0.000559506007059949,-0.159886471144749,-0.00684631895911537,0.0119429100416069,0.0102135278379671,-0.000946073793755913,0.000681580044963937,-0.0229499191259499,-0.0138859218115787,-0.0138859218115787,0.477655364645324
3.27,1,0.0238044373912778,0.000152592547379986,-0.0138248847926267,0.0156356496882026,0.000152592547379986,-0.0142012797428307,0.000600197353027945,-0.160171310566525,-0.00704977568895535,0.010610268461155,0.00582903530991546,9.15555284279916e-05,0.00143436994537187,-0.022156437879574,-0.0138859218115787,-0.0138859218115787,0.477340006714072
3.3,1,0.0238044373912778,0.000152592547379986,-0.0140181686859747,0.0159408347829625,0.000152592547379986,-0.0140283415224667,0.000356049277219967,-0.160130619220557,-0.00725323241879533,0.00905382447787917,0.00284839421775974,0.000895209611295918,0.00157678965625985,-0.021952981149734,-0.0138859218115787,-0.0140893785414187,0.48129724010946
3.33,1,0.0236620176803898,0.000152592547379986,-0.0139469588305307,0.0161646371857865,0.000152592547379986,-0.0140893785414187,0.000233975239315978,-0.160252693258461,-0.00700908434298736,0.00835189875993123,-0.00139367859940387,0.00208543148085981,0.00164799951170385,-0.02178004292937,-0.0138859218115787,-0.0144962920010987,0.4832809432254
3.36,1,0.0236518448438978,0.000152592547379986,-0.0138960946480707,0.0163986124251025,0.000152592547379986,-0.0145166376740827,0.000478123315123956,-0.160293384604429,-0.00717184972685934,0.00558488723410749,-0.00285856705425174,5.08641824599953e-05,0.00133264158045188,-0.02208522802413,-0.0138859218115787,-0.0145268105105747,0.485386720379243
3.39,1,0.0234992522965178,0.000152592547379986,-0.0139774773400067,0.0164799951170385,0.000152592547379986,-0.0144861191646067,-1.01728364919991e-05,-0.160700298064109,-0.00696839299701936,0.00713115838089134,-0.00230923388368379,0.000620543026011943,0.0010884935046439,-0.022227647735018,-0.0138859218115787,-0.0149540696432386,0.485508794417147
3.42,1,0.0234789066235338,0.000152592547379986,-0.0139673045035147,0.0164799951170385,0.000152592547379986,-0.0144556006551307,0.000356049277219967,-0.160578224026205,-0.00778221991637928,0.00390636921292764,-0.00348928291675568,-0.000966419466739911,0.000773135573391929,-0.0224616229743339,-0.0138859218115787,-0.0149540696432386,0.488082522049623
3.45,1,0.0233466597491379,0.000152592547379986,-0.0139469588305307,0.0166631061738945,0.000152592547379986,-0.0149133782972706,0.000152592547379986,-0.160171310566525,-0.0075787631865393,0.00277718436231574,-0.00488296151615955,-0.00032553076774397,0.000518814661091952,-0.0226040426852219,-0.0138859218115787,-0.0149540696432386,0.489537237667979
3.48,1,0.0233466597491379,0.000152592547379986,-0.0138859218115787,0.0168767357402264,0.000152592547379986,-0.0149540696432386,0.000356049277219967,-0.160578224026205,-0.00696839299701936,0.00207525864436781,-0.00319427065848771,0.00247199926755577,0.000396740623187963,-0.0227464623961099,-0.0138859218115787,-0.0149540696432386,0.487197485274819
3.51,1,0.0233466597491379,0.000152592547379986,-0.0139774773400067,0.0169377727591784,0.000152592547379986,-0.0150151066621906,0.000315357931251971,-0.160578224026205,-0.0075787631865393,-0.00032553076774397,-0.00597145502080345,0.00282804854477574,0.000203456729839981,-0.0229600919624419,-0.0138859218115787,-0.0149540696432386,0.486363312682475
3.54,1,0.0233466597491379,0.000152592547379986,-0.0139062674845627,0.0170089826146224,0.000152592547379986,-0.0148421684418266,-9.15555284279916e-05,-0.159886471144749,-0.0076601458784753,0.00120039470605589,-0.00625629444257942,0.00461846776736758,-6.10370189519944e-05,-0.0232754498936939,-0.0138859218115787,-0.0152287362285226,0.484450819421979
3.57,1,0.0233466597491379,0.000152592547379986,-0.0140181686859747,0.0170903653065584,0.000152592547379986,-0.0152694275744906,-0.000457777642139958,-0.159438866339101,-0.0076601458784753,0.00200404878892382,-0.00803654082867926,0.00375377666554765,-0.000813826919359925,-0.0240180669576098,-0.0138859218115787,-0.0154118472853786,0.486037781914731
3.6,1,0.0233466597491379,0.000152592547379986,-0.0138960946480707,0.0170903653065584,0.000152592547379986,-0.0153406374299346,-0.000701925717947935,-0.159845779798781,-0.00660217088330739,-0.00341807306131169,-0.00645975117241941,-0.00719219539984334,-0.00177007354960784,-0.0250048320973337,-0.0138859218115787,-0.0154118472853786,0.491083508814763
3.63,1,0.0234280424410738,0.000152592547379986,-0.0138960946480707,0.0170903653065584,0.000152592547379986,-0.0153813287759026,-0.000498468988107954,-0.160740989410077,-0.00709046703492335,0.00372325815607166,-0.00920641702525915,0.00738547929319132,-0.00247199926755577,-0.0258084861802016,-0.0138859218115787,-0.0154118472853786,0.499526963103122
3.66,1,0.0235399436424858,0.000152592547379986,-0.0139571316670227,0.0170903653065584,0.000152592547379986,-0.0154016744488866,-5.08641824599953e-05,-0.160130619220557,-0.00676493626717938,0.00458794925789158,-0.00940987375509914,0.00734478794722332,-0.00285856705425174,-0.0263069551683096,-0.0138859218115787,-0.0154118472853786,0.502456740012818
3.69,1,0.0236823633533738,0.000152592547379986,-0.0139571316670227,0.0170903653065584,0.000152592547379986,-0.0154118472853786,0.00076296273689993,-0.160008545182653,-0.00696839299701936,0.00461846776736758,-0.010620441297647,0.00720236823633534,-0.00288908556372773,-0.0264595477156896,-0.0138859218115787,-0.0154118472853786,0.508580787581001
3.72,1,0.0238858200832138,0.000152592547379986,-0.0138350576291187,0.0170801924700664,0.000152592547379986,-0.0155746126692506,0.000152592547379986,-0.159723705760877,-0.00733461511073133,0.00521866512039552,-0.0176193528041424,0.00986765139723909,-0.00299081392864772,-0.0267647328104495,-0.0138859218115787,-0.0154118472853786,0.514186020488093
3.75,1,0.0238756472467218,0.000152592547379986,-0.0140283415224667,0.0168767357402264,0.000152592547379986,-0.0152999460839666,-0.00102745648569191,-0.159967853836685,-0.00774152857041129,0.00797550380972727,-0.0195827102470982,0.00731426943774733,-0.00395723339538764,-0.0277616707866654,-0.0138859218115787,-0.0150151066621906,0.52038127791172
3.78,1,0.0239570299386578,0.000152592547379986,-0.0138859218115787,0.0166631061738945,0.000152592547379986,-0.0151880448825546,-0.000661234371979939,-0.160212001912493,-0.00810775068412325,0.0098066143782871,-0.021291746777754,0.0076499730419833,-0.00537125766777551,-0.0292469049144973,-0.0138859218115787,-0.0149540696432386,0.528926460564999
3.81,1,0.0239570299386578,0.000152592547379986,-0.0139978230129907,0.0153711559394106,-0.00641905982645141,-0.0138452304656107,-0.00147506129133986,-0.160212001912493,-0.00725323241879533,0.00957263913897112,-0.0193995991902422,0.0075889360230313,-0.00667338073875139,-0.0305795464949492,-0.0138859218115787,-0.00944039226457513,0.534704631692455
3.84,1,0.0240180669576098,0.000152592547379986,-0.0136824650817387,0.0162663655507065,0.00664286222927539,-0.00612404756818344,-0.00285856705425174,-0.160700298064109,-0.00786360260831528,0.0087181208736432,-0.0178838465529344,0.00671407208471938,-0.00819930621255125,-0.032146163314717,-0.0138859218115787,-0.0189825128940703,0.541713716035442
3.87,1,0.0238959929197058,0.000152592547379986,-0.0140588600319427,0.0149438968067466,-0.00132246874395988,-0.0076601458784753,-0.00119022186956389,-0.160374767296365,-0.00704977568895535,0.00850449130731122,-0.0144454278186387,0.00482192449720756,-0.00983713288776309,-0.0336619159520249,-0.0138859218115787,-0.011281675669627,0.544358653523362
3.9,1,0.0238044373912778,0.000152592547379986,-0.0138859218115787,0.0147811314228746,-0.00478123315123956,-0.00850449130731122,-0.00444552954700359,-0.161107211523789,-0.00831120741396323,0.00740582496617532,-0.00861639250872321,0.00290943123671173,-0.0119225643686229,-0.0356964832504247,-0.0138859218115787,-0.0123396506647949,0.545192826115706
3.93,1,0.0238044373912778,0.000152592547379986,-0.0139876501764987,0.0152796004109826,0.00639871415346741,-0.00510676391898353,-0.00371308531957966,-0.160537532680237,-0.00839259010589923,0.0075991088595233,-0.0021566413363038,0.00306202378409172,-0.0126448357595548,-0.0363882361318807,-0.0138859218115787,-0.0166020691549425,0.546037171544542
3.96,1,0.0238044373912778,0.000152592547379986,-0.0139469588305307,0.0139876501764987,-0.00198370311593982,-0.0064699240089114,-0.000457777642139958,-0.160334075950397,-0.00802636799218726,0.00609352905870744,-0.00190232042400382,0.00463881344035157,-0.0136926379182307,-0.0373851741080966,-0.0138859218115787,-0.00946073793755913,0.548336232591734
3.99,1,0.0237942645547858,0.000152592547379986,-0.0139469588305307,0.0139367859940387,-0.00489313435265155,-0.00769066438795129,-0.00371308531957966,-0.161188594215725,-0.00920641702525915,0.00719219539984334,-0.00697856583351136,0.00481175166071556,-0.0138655761385947,-0.0375377666554765,-0.0138859218115787,-0.011230811487167,0.547563097018342
4.02,1,0.0236518448438978,0.000152592547379986,-0.0140283415224667,0.0144352549821467,0.00524918362987152,-0.00485244300668355,-0.00371308531957966,-0.159154026917325,-0.00900296029541917,0.00704977568895535,-0.00263476465142776,0.00943021942808313,-0.0138350576291187,-0.0374767296365246,-0.0138859218115787,-0.0173345133823664,0.541083000172938
4.05,1,0.0236518448438978,0.000152592547379986,-0.0139062674845627,0.0134484898424228,0.000732444227423933,-0.00526952930285552,0.00401827041433963,-0.159357483647165,-0.0102237006744591,0.00607318338572344,-0.000172938220363984,0.010396638894823,-0.0133671071504868,-0.0369884334849086,-0.0138859218115787,-0.00961333048493912,0.538336334320098
4.08,1,0.0236518448438978,0.000152592547379986,-0.0137536749371827,0.0132450331125828,-0.0053814305042675,-0.00685649179560737,-0.0054221218502355,-0.160456149988301,-0.00989816990671509,0.00390636921292764,0.00924710837122715,0.00348928291675568,-0.0114546138899909,-0.0350454217149368,-0.0138859218115787,-0.00879950356557919,0.54307687612537
4.11,1,0.0238095238095238,0.000152592547379986,-0.0138452304656107,0.0145980203660187,0.00590533158360546,-0.00640888698995941,-0.00230923388368379,-0.159723705760877,-0.010386466058331,-0.011088391776279,0.00899278745892717,-0.00152083905555386,-0.0118157495854569,-0.0355642363760287,-0.0138859218115787,-0.0185094759971923,0.558442945646535
4.14,1,0.0241604866684978,0.000152592547379986,-0.0140436007772047,0.0138859218115787,0.000925728120771915,-0.0064699240089114,0.000518814661091952,-0.158136743268125,-0.00853500981678721,-0.021790215765862,-0.000559506007059949,-0.00462864060385957,-0.010340688294117,-0.0344248786889248,-0.0142317982523067,-0.011332539852087,0.584063234351634
4.17,1,0.0245317952004557,0.000152592547379986,-0.0142419710887987,0.0147353536586606,0.000661234371979939,-0.00955737988423312,-0.00283822138126774,-0.159276100955229,-0.00745668914863531,-0.0207881913714001,-0.00426241849014761,-0.0075635039318013,-0.010956144901883,-0.0353963845739107,-0.0144962920010987,-0.0140232551042207,0.63068025757622
4.2,1,0.0249946592608417,0.000152592547379986,-0.0145624154382967,0.0145318969288207,0.000152592547379986,-0.0117547125665049,-0.00424207281716361,-0.158930224514501,-0.00444552954700359,-0.0075787631865393,0.0129551072725608,-0.00614947965941343,-0.0116529842015849,-0.0365713471887366,-0.0147862178411206,-0.0129703665272988,0.695623645741142
4.23,1,0.0265002390616576,0.00288908556372773,-0.0151066621906186,0.0145217240923287,0.000152592547379986,-0.0126956999420148,-0.00532039348531551,-0.160456149988301,-0.00672424492121138,0.00522375153864152,0.0381481368449965,0.00446587521998759,-0.0121616260261849,-0.0385804823959065,-0.0160069582201605,-0.0129703665272988,0.782341990417188
4.26,1,0.0312204351939451,0.0129245887630848,-0.02142399365215,0.0149235511337626,0.000152592547379986,-0.0128686381623788,-0.00481175166071556,-0.164036988433485,-0.00784325693533128,0.00198878953418582,0.0646280302336701,0.0101067130548011,-0.00965402183090711,-0.0407879879146702,-0.0246080914741457,-0.0131687368388928,0.868170211900184
4.29,1,0.0376496678568885,0.0193741670990122,-0.0286161890519934,0.0174616738385164,0.00913012075156916,-0.0146387117119867,-0.00204474013489181,-0.163630074973805,-0.00853500981678721,-0.000269580167037975,0.087405011139256,0.0117597989847509,-0.00518306019267352,-0.0427920367035941,-0.0309508550269072,-0.0202693767103081,0.910723186946216
4.32,1,0.0491398866746015,0.0368867051199886,-0.0424054689168981,0.0230007833084099,0.0196183151748202,-0.0232907091484319,-0.0043234555090996,-0.165054272082685,-0.00879950356557919,-0.00233975239315978,0.138955860062461,0.00427767774488561,0.00165817234819585,-0.0472935168513037,-0.0459964801985738,-0.0332397432376069,0.922859380881171
4.35,1,0.0590126244900866,0.0311136204107791,-0.0516983550523392,0.0291909543137913,0.0177363404238004,-0.0336822616250089,0.00971505884985911,-0.158340199997965,-0.00930814539017914,-0.0155186620685446,0.0785851619006928,-0.0148167363505966,0.0087028616189052,-0.0500707012136194,-0.0517085278888312,-0.0396994944100263,0.919161554816329
4.38,1,0.064683980834376,0.0189825128940703,-0.0488397879980875,0.0309966327911211,0.00142928352712587,-0.0341552985218869,0.00595110934781945,-0.160069582201605,-0.0065614795373394,-0.0125990579953408,0.0122837000640889,-0.00396740623187963,0.010976490574867,-0.0534735150201931,-0.0493586026591795,-0.0300047812331512,0.909309162673828
4.41,1,0.0657216101565599,0.00310780154830571,-0.043142999562568,0.0312356944486831,0.000152592547379986,-0.0296131270282093,0.00666320790225939,-0.160476495661285,-0.00737530645669932,-0.00971505884985911,-0.0349945575324768,0.00375886308379365,0.0124413790297149,-0.0530513423057751,-0.0418001851456242,-0.0281685842463454,0.881252479628895
4.44,1,0.065767387920774,0.00021362956633198,-0.0397249265012563,0.0312560401216671,0.000152592547379986,-0.0283822138126774,0.00171920936714784,-0.161046174504837,-0.00739565212968332,-0.0161137730033265,-0.0558793908505509,0.00492873928037355,0.010416984567807,-0.0551418602048809,-0.0398266548661763,-0.0283516953032014,0.822066916918444
4.47,1,0.064714499343852,-0.00256355479598376,-0.0397401857559943,0.0288806828007853,-0.00766523229672129,-0.0254270048117517,0.00210577715384381,-0.160781680756045,-0.00607318338572344,-0.0164240445163325,-0.0725882747886593,0.000823999755851924,0.00673950417594938,-0.0577359335103407,-0.0386313465783664,-0.0207627592801701,0.74006368195644
4.5,1,0.0610268461155024,-0.010513626514481,-0.0333109530930509,0.0273242388175095,-0.00678528194016338,-0.0227820673238319,-0.00139367859940387,-0.161819310078229,-0.00637836848048341,-0.0132094281848608,-0.0917844172490616,0.00310780154830571,0.00150557980081586,-0.0593483280943225,-0.0316324350718711,-0.0211849319945881,0.636549984232104
4.53,1,0.0550452182582069,-0.0168970814132104,-0.0277820164596494,0.0209204382457961,-0.022181869970804,-0.0122124902086449,0.00129195023448388,-0.161880347097181,-0.00788394828129927,-0.0172734763634144,-0.114881842504145,0.00367239397361166,-0.00563066499832148,-0.0605792413098544,-0.0259305602181056,-0.00409456668802962,0.509781182287057
4.56,1,0.0459405295978678,-0.0248166346222317,-0.0181890316476943,0.0168462172307505,-0.00887071342102318,-0.00301624601987772,-0.00131229590746788,-0.161514124983469,-0.00454725791192358,-0.0139622180852687,-0.111860510066022,-0.00310780154830571,-0.0097303181045971,-0.0556148971017589,-0.0152236498102766,-0.00813318277535325,0.372646259956664
4.59,1,0.0395418154444004,-0.0156458225246946,-0.0150354523351746,0.0144149093091627,-0.00284839421775974,-0.00390636921292764,-0.0114851323994669,-0.163955605741549,-0.0138859218115787,-0.0405794447665843,-0.0693990905484176,-0.011220638650675,-0.0208034506261381,-0.0602842290515865,-0.0152389090650146,-0.0115766879278949,0.236955880408134
4.62,1,0.0337636443169449,-0.0142114525793227,-0.0151575263730786,0.011281675669627,-0.00565609708955148,-0.00368256681010366,-0.00595110934781945,-0.161229285561693,-0.00969471317687511,-0.0676086713258258,-0.0382905565558845,-0.0252082888271737,-0.0279040904975534,-0.0615863521225623,-0.0137129835912147,-0.00442518387401959,0.11281675669627
4.65,1,0.0258796960356456,-0.02218695638905,-0.00943021942808313,0.00963367615792311,-0.00331634469639169,-0.0053814305042675,-0.00521866512039552,-0.163548692281869,-0.0126244900865708,-0.0902330596840317,-0.0295317443362733,-0.0405997904395683,-0.0280872015544094,-0.0538346507156591,-0.00533056632180751,-0.00832138025045523,0.032949817397585
4.68,1,0.0191554511144342,-0.0191045869319742,0.000895209611295918,0.00830103457747124,0.00277718436231574,-0.00123091321553189,-0.00428276416313161,-0.158991261533453,-0.00822982472202724,-0.0911384421318196,-0.0358694214707887,-0.0525427004811752,-0.0272530289620655,-0.0463270973845637,-0.000467950478631957,-0.00745668914863531,0.00808740501113926
4.71,1,0.0181279946287423,-0.00137333292641987,-0.00585955381939146,0.00678528194016338,-0.000528987497583951,-0.00032553076774397,-0.00953194779300312,-0.14727215389467,0.0165918963184505,-0.0449944558041119,-0.0157170323801386,-0.076530248929309,-0.0343231503240048,-0.0523799350973032,-0.00947091077405113,-0.00397757906837163,0.00292977690969573
4.74,1,0.0167648345388145,0.000142419710887987,-0.00966419466739911,0.00584938098289946,-0.00404878892381563,-0.00086469110181992,-0.00131229590746788,-0.146173487553535,0.0043844925280516,-0.0442314930672119,0.0133162429680268,-0.0285348063600574,-0.0337738171534369,-0.0504572690003154,-0.0098269600512711,-0.00202439446190781,0.00189214758751183
4.77,1,0.0157373780531226,0.000152592547379986,-0.00937935524562314,0.00554419588813949,-0.00130212307097588,-0.00185145624154383,-0.00806705933815526,-0.15622425000763,-0.000783308409883928,-0.0252794986826177,0.032715842158269,0.0315968301441491,-0.0295012258267973,-0.0451673940244758,-0.00916572567929116,-0.00601214636677145,0.00455743074841558
4.8,1,0.0153406374299346,0.000152592547379986,-0.00910468866033916,0.0054424675232195,0.00260424614195176,-0.00191249326049582,-0.00554419588813949,-0.164159062471389,-0.00391654204941964,-0.00195318460646382,0.0497553432823674,0.0448011719107639,-0.0283008311207414,-0.043539740185756,-0.00900296029541917,-0.00768049155145929,0.0703858556881415
4.83,1,0.0156865138706626,0.000152592547379986,-0.00887071342102318,0.00414034445224362,0.00053916033407595,-0.00204474013489181,0.0011291848506119,-0.163263852860093,0.00206508580787581,0.0175074516027304,0.0316070029806411,0.0248318938769697,-0.0234076967680898,-0.0390026551103244,-0.00900296029541917,0.000335703604235969,0.186773277993103
4.86,1,0.0163172297331665,0.000152592547379986,-0.00908434298735517,0.00446587521998759,-0.00283822138126774,-0.00442518387401959,-0.00534073915829951,-0.165339111504461,-0.000132246874395988,0.0347402366201768,0.0123396506647949,0.0280465102084414,-0.0208441419721061,-0.0370901618498286,-0.00945056510106713,-0.00448622089297159,0.291716259244565
4.89,1,0.0169377727591784,0.000152592547379986,-0.00942004659159113,0.00526952930285552,0.00740582496617532,-0.00199387595243182,-0.0033061718598997,-0.163223161514125,-0.00473036896877956,0.0265511032441176,-5.08641824599953e-05,0.0182398958301543,-0.0202541174555701,-0.0371003346863206,-0.0098269600512711,-0.00884019491154719,0.357982116153447
4.92,1,0.0175481429486984,0.000152592547379986,-0.00998972543514308,0.00360118411816767,-0.00684631895911537,-0.00343841873429568,0.000966419466739911,-0.161392050945565,-0.00167851802117985,0.0189113030386263,-0.0259610787275816,0.00414034445224362,-0.0197556484674622,-0.0372427543972086,-0.0101321451460311,0.00207525864436781,0.376771345154169
4.95,1,0.0179347107353944,0.000152592547379986,-0.0102745648569191,0.0043844925280516,0.000183111056855983,-0.000844345428835922,-0.0043234555090996,-0.159357483647165,-0.00127160456149988,0.0241706595049898,-0.0467747021902117,0.0145369833470667,-0.0204779198583941,-0.0383109022288685,-0.010528885769219,-0.00495417137160354,0.380901516769921
4.98,1,0.0181381674652343,0.000152592547379986,-0.010437330240791,0.00444552954700359,0.00165817234819585,-0.00200404878892382,-0.00676493626717938,-0.159642323068941,-0.0021261228268278,0.0300505589973652,-0.0369782606484166,0.0238959929197058,-0.0237840917182938,-0.0418205308186082,-0.010528885769219,-0.00586972665588346,0.380189418215481
5.01,1,0.0181585131382183,0.000152592547379986,-0.010610268461155,0.00289925840021973,-0.00197353027944782,-0.00116987619657989,-0.00627664011556342,-0.159357483647165,-0.00350962858973968,0.0293689789524013,-0.0156254768517106,0.0245877458011617,-0.0273445844904935,-0.0453606779178238,-0.010528885769219,0.000834172592343923,0.386923835973184
5.04,1,0.0180364391003143,0.000152592547379986,-0.010549231442203,0.00281787570828374,0.000152592547379986,0.000610370189519944,-0.00957263913897112,-0.160537532680237,-0.00391654204941964,0.0254524369029817,0.0076601458784753,0.0193589078442742,-0.0303760897651092,-0.0483514918464716,-0.010528885769219,-0.00228888821069979,0.402081362346263
5.07,1,0.0181585131382183,0.000152592547379986,-0.010437330240791,0.00261950539668976,0.000152592547379986,0.000630715862503942,-0.00664286222927539,-0.160008545182653,-0.0043438011820836,0.0224921414838099,0.021607104709006,0.0134077984964548,-0.0315256202887051,-0.0495569729707734,-0.010528885769219,-0.00167851802117985,0.421363973916847
5.1,1,0.0183111056855983,0.000152592547379986,-0.010549231442203,0.00273140659810175,0.000152592547379986,0.000610370189519944,-0.00521866512039552,-0.160557878353221,-0.00397757906837163,0.0194250312814722,0.0232551042207099,0.00735496078371532,-0.0300912503433332,-0.0483311461734876,-0.010528885769219,-0.00173955504013184,0.440661844742169
5.13,1,0.0187536240730003,0.000152592547379986,-0.010569577115187,0.00375377666554765,0.00475071464176356,-0.0010528885769219,-0.00405896176030763,-0.160924100466933,-0.00440483820103559,0.0138248847926267,0.0119479964598529,0.00373851741080966,-0.0285449791965494,-0.0472375662505976,-0.010971404156621,-0.0076296273689993,0.454654581336914
5.16,1,0.0192114017151402,0.000152592547379986,-0.011200292977691,0.00439975178278959,0.0032095299132257,0.000671407208471938,-0.00460829493087558,-0.160028890855637,-0.0032247891679637,0.0186264636168503,0.00589515874711346,0.00228888821069979,-0.0268817204301075,-0.0460219122898038,-0.011093478194525,-0.00426241849014761,0.463733837906023
5.19,1,0.0196691793572802,0.000152592547379986,-0.0114393546352529,0.0032146163314717,-0.00708029419843135,-0.00393688772240364,-0.00450656656595559,-0.160517187007253,-0.0054017761772515,0.0195827102470982,0.00818404695781325,0.00316375214901171,-0.0272123376160975,-0.0468103071179337,-0.0114444410534989,0.0022278511917478,0.466668701233965
5.22,1,0.0200506607257302,0.000152592547379986,-0.0115461694184189,0.00480666524246956,0.00484227017019155,-0.00371308531957966,-0.0054628131962035,-0.160395112969349,-0.00499486271757154,0.0185298216701763,0.0137078971729687,0.000513728242845953,-0.0263730786055076,-0.0463270973845637,-0.0116275521103549,-0.00925219478947315,0.477019562364574
5.25,1,0.0202592038738161,0.000152592547379986,-0.0118259224219489,0.0043285419273456,0.00233466597491379,-0.00336212246060569,-0.00320444349497971,-0.160069582201605,-0.00534073915829951,0.0174921923479924,0.0150405387534206,-0.00227362895596179,-0.0249539679148737,-0.0451317890967538,-0.0120548112430189,-0.00278227078056174,0.485981831314025
5.28,1,0.0204779198583941,0.000152592547379986,-0.0120242927335429,0.0054780724509415,0.000661234371979939,-0.0054373811049735,-0.00422172714417961,-0.160273038931445,-0.00584938098289946,0.0129907122002828,0.0115817743461409,-0.00502538122704754,-0.0240384126305938,-0.0444247769605599,-0.0120548112430189,-0.00549333170567949,0.493270668660543
5.31,1,0.0206864630064801,0.000152592547379986,-0.0120242927335429,0.00564592425305948,0.000152592547379986,-0.00519831944741152,-0.00452691223893958,-0.159764397106845,-0.00503555406353954,0.0118717001861629,0.00934375031790114,-0.00369273964659566,-0.0234280424410738,-0.0440280363373719,-0.0120548112430189,-0.00473036896877956,0.500798567664622
5.34,1,0.0209255246640421,0.000152592547379986,-0.0119123915321309,0.00587481307412946,0.000152592547379986,-0.00501012197230954,-0.00375377666554765,-0.160435804315317,-0.00578834396394747,0.0097455773593351,0.00599688711203345,-0.00365713471887366,-0.0228787092705059,-0.043743196915596,-0.0123142185735649,-0.00486770226142155,0.503087455875322
5.37,1,0.0211442406486201,0.000152592547379986,-0.0123854284290089,0.00595110934781945,0.000152592547379986,-0.00491348002563555,-0.00296029541917173,-0.159967853836685,-0.00464898627684357,0.010340688294117,0.00151575263730786,-0.00185145624154383,-0.022146265043082,-0.043198950163274,-0.0125125888851588,-0.00518814661091952,0.510437330240791
5.4,1,0.021317178868984,0.000152592547379986,-0.0127160456149988,0.00595110934781945,0.000152592547379986,-0.00505081331827753,-0.00391654204941964,-0.160456149988301,-0.00611387473169144,0.0146336252937407,0.000615456607765943,0.00102237006744591,-0.02175461083814,-0.042964974923958,-0.0125125888851588,-0.00518814661091952,0.511754712566505
5.43,1,0.021469771416364,0.000152592547379986,-0.0125024160486668,0.00601723278501745,0.000152592547379986,-0.00500503555406354,-0.00310271513005971,-0.160639261045157,-0.00641905982645141,0.010437330240791,-0.0064953561001414,-0.00123599963377789,-0.021566413363038,-0.0429395428327281,-0.0125125888851588,-0.00518814661091952,0.516246019877723
5.46,1,0.021632536800236,0.000152592547379986,-0.0124668111209449,0.00623594876959543,0.000152592547379986,-0.00511185033722953,-0.00298064109215573,-0.160374767296365,-0.00662251655629139,0.00918607135227515,-0.0076143681142613,0.000167851802117985,-0.021327351705476,-0.0429191971597441,-0.0126194036683248,-0.00518814661091952,0.516352834660889
5.49,1,0.021815647857092,0.000152592547379986,-0.0128889838353628,0.0064750104271574,0.000152592547379986,-0.00512710959196753,-0.00450656656595559,-0.160537532680237,-0.00576799829096347,0.00734478794722332,-0.00713115838089134,0.00101219723095391,-0.021942808313242,-0.043656727805414,-0.0129703665272988,-0.0054475539414655,0.51814325388348
5.52,1,0.02195806756798,0.000152592547379986,-0.0131178726564328,0.00665812148401339,0.000152592547379986,-0.00525935646636352,-0.00452691223893958,-0.160232347585477,-0.00617491175064343,0.00858078758100121,-0.00937426882737714,0.000574765261797947,-0.0227973265785699,-0.0446740114546139,-0.0129703665272988,-0.00564592425305948,0.519831944741152
5.55,1,0.0220597959329,0.000152592547379986,-0.0132552059490748,0.00671407208471938,0.000152592547379986,-0.00562557858007548,-0.0043031098361156,-0.159560940377005,-0.00698873867000336,0.00640380057171341,-0.00716676330861334,-0.00298572751040173,-0.0233975239315978,-0.0453911964272998,-0.0129703665272988,-0.00564592425305948,0.518560340179652
5.58,1,0.022232734153264,0.000152592547379986,-0.0130008850367748,0.00671407208471938,0.000152592547379986,-0.00573747978148747,-0.0043641468550676,-0.159316792301197,-0.00593076367483545,0.00777713349813328,-0.00625120802433342,0.00086469110181992,-0.0238196966460158,-0.0459812209438358,-0.0129703665272988,-0.00564592425305948,0.524511449527472
5.61,1,0.0223548081911679,0.000152592547379986,-0.0129144159265928,0.00669372641173538,0.000152592547379986,-0.00553910946989349,-0.00471002329579557,-0.160008545182653,-0.00615456607765943,0.00689718314157537,-0.00386567786695964,-0.000691752881455936,-0.0244809310179957,-0.0467594429354737,-0.0129703665272988,-0.00564592425305948,0.530579546494949
5.64,1,0.0225175735750399,0.000152592547379986,-0.0132399466943368,0.00657673879207739,0.000152592547379986,-0.00563066499832148,-0.00473036896877956,-0.160557878353221,-0.00696839299701936,0.00687683746859137,-0.00408948026978362,0.00121056754254789,-0.0248471531317077,-0.0473036896877956,-0.0132297738578448,-0.00564592425305948,0.532268237352621
5.67,1,0.0225836970122379,0.000152592547379986,-0.0131687368388928,0.0065614795373394,0.000152592547379986,-0.00553402305164749,-0.0043438011820836,-0.160049236528621,-0.00641905982645141,0.00612913398642944,-0.00297555467390973,-0.00311288796655171,-0.0251930295724357,-0.0476953438927376,-0.0134281441694388,-0.00564592425305948,0.533326212347789
5.7,1,0.0227312031413719,0.000152592547379986,-0.0137485885189367,0.0064953561001414,0.000152592547379986,-0.00574256619973347,-0.0043844925280516,-0.160374767296365,-0.00684631895911537,0.00407422101504562,-0.00381990010274565,-0.000549333170567949,-0.0254168319752597,-0.0480208746604816,-0.0134281441694388,-0.00564592425305948,0.534618162582273
5.73,1,0.0227362895596179,0.000152592547379986,-0.0133721935687328,0.00640888698995941,0.000152592547379986,-0.00559506007059949,-0.0043234555090996,-0.160578224026205,-0.00682597328613137,0.00361135695465967,-0.0065462202826014,8.6469110181992e-05,-0.0255897701956236,-0.0482446770633056,-0.0134281441694388,-0.00564592425305948,0.534836878566851
5.76,1,0.0228329315062919,0.000152592547379986,-0.0135502182073428,0.00483209733369956,-0.00725831883704133,-0.00443027029226559,-0.00440483820103559,-0.160374767296365,-0.00676493626717938,0.00423698639891761,-0.0087486393831192,0.00169377727591784,-0.0258084861802016,-0.0485752942492955,-0.0134281441694388,0.000956246630247912,0.535325174718467
5.79,1,0.0230262153996399,0.000152592547379986,-0.0133060701315348,0.00569170201727348,0.000951160212001912,-0.00203456729839981,-0.00530004781233151,-0.160110273547573,-0.00674459059419538,0.00659199804681539,-0.00729392376476333,0.00293994974618773,-0.0264849798069196,-0.0494399853511155,-0.0134281441694388,-0.00665303506576739,0.535905026398511
5.82,1,0.0231381166010519,0.000152592547379986,-0.0134739219336528,0.00607826980396944,0.00262967823318176,-0.00210577715384381,-0.00554419588813949,-0.159967853836685,-0.00686666463209937,0.00491348002563555,-0.00689718314157537,0.00258898688721376,-0.0271767326883755,-0.0502334665974914,-0.0134281441694388,-0.00801619515569526,0.533402508621479
5.85,1,0.0233212276579079,0.000152592547379986,-0.0136061688080487,0.00504572690003154,0.00158187607450585,-0.00233466597491379,-0.00350962858973968,-0.159255755282245,-0.00686666463209937,0.0054831588691875,-0.00385041861222165,0.00464389985859757,-0.0270139673045035,-0.0502538122704754,-0.0137485885189367,-0.00134281441694388,0.532726014994761
5.88,1,0.0234839930417798,0.000152592547379986,-0.0136214280627867,0.00550859096041749,0.0010834070863979,-0.000493382569861955,-0.00564592425305948,-0.159967853836685,-0.00707012136193935,0.00155135756502986,-0.00120548112430189,0.0043692332733136,-0.0275836461480555,-0.0509404787336853,-0.0138859218115787,-0.00598162785729545,0.530996632791121
5.91,1,0.0234992522965178,0.000152592547379986,-0.0139571316670227,0.00478123315123956,-0.00569170201727348,-0.00443535671051159,-0.00696839299701936,-0.160374767296365,-0.00666320790225939,0.00293994974618773,0.00124617247026989,0.00243130792158778,-0.0289315469832453,-0.0523392437513352,-0.0138859218115787,-0.00180059205908383,0.533448286385693
5.94,1,0.0234992522965178,0.000152592547379986,-0.0143335266172267,0.00549841812392549,0.00492873928037355,-0.0021719005910418,-0.00658182521032339,-0.159764397106845,-0.00645975117241941,0.0010681478316599,0.00892157760348318,0.00131229590746788,-0.0289722383292133,-0.0523748486790572,-0.0138859218115787,-0.00946582435580513,0.535248878444777
5.97,1,0.0235653757337158,0.000152592547379986,-0.0134434034241768,0.00476088747825556,0.000376394950203965,-0.00268054241564175,-0.00397757906837163,-0.159947508163701,-0.00688701030508337,0.000752789900407931,0.0153406374299346,0.0021922462640258,-0.0285653248695334,-0.0520544043295592,-0.0138859218115787,-0.000640888698995941,0.550594602292957
6,1,0.0236518448438978,0.000152592547379986,-0.0141860204880927,0.00515762810144353,-0.00448622089297159,-0.00488804793440555,-0.00525935646636352,-0.159784742779829,-0.00806705933815526,0.00195318460646382,0.0160832544938505,0.00271106092511775,-0.0277108066042055,-0.0512304045737073,-0.0138859218115787,-0.00423698639891761,0.573727632475763
6.03,1,0.0236518448438978,0.000152592547379986,-0.0141300698873867,0.00623594876959543,0.00688701030508337,-0.00371308531957966,-0.00509659108249153,-0.159276100955229,-0.00680562761314737,0.000996937976215908,0.0192164881333862,0.00180059205908383,-0.0265816217535936,-0.0501419110690634,-0.0138859218115787,-0.00892157760348318,0.605385499638864
6.06,1,0.0236518448438978,0.000152592547379986,-0.0136621194087547,0.0065614795373394,0.000193283893347982,-0.00583920814640746,-0.00285856705425174,-0.158747113457645,-0.00623594876959543,0.000447604805647959,0.0149845881527146,0.0032959990234077,-0.0251167332987457,-0.0486770226142155,-0.0138859218115787,-0.00570696127201147,0.646778771324808
6.09,1,0.0238044373912778,0.000152592547379986,-0.0138350576291187,0.00674459059419538,0.000152592547379986,-0.00577817112745547,-0.00403861608732363,-0.159805088452813,-0.00680562761314737,0.00154627114678386,0.00826034323150324,0.00508641824599953,-0.0236823633533738,-0.0473748995432396,-0.0138859218115787,-0.00564592425305948,0.702251248715679
6.12,1,0.0237434003723258,0.000152592547379986,-0.0142216254158147,0.00708029419843135,0.000152592547379986,-0.00580868963693147,-0.00468967762281157,-0.160089927874589,-0.00558488723410749,0.00956246630247912,0.00998972543514308,0.00575782545447147,-0.0233364869126459,-0.0470493687754957,-0.0138859218115787,-0.00595110934781945,0.758150985239214
6.15,1,0.0236518448438978,0.000152592547379986,-0.0137028107547227,0.00753807184057131,0.000152592547379986,-0.00572730694499547,-0.00452691223893958,-0.158991261533453,-0.00477106031474756,0.0227057710501419,0.0192266609698782,0.00939970091860714,-0.0229804376354259,-0.0466221096428317,-0.0138859218115787,-0.00631733146153142,0.820215460676901
6.18,1,0.0236518448438978,0.000152592547379986,-0.0140079958494827,0.00807723217464726,0.000152592547379986,-0.00599180069378745,-0.00493382569861955,-0.159154026917325,-0.00513728242845953,0.0391145563117364,0.0368765322834966,0.0186264636168503,-0.021586759036022,-0.0451470483514918,-0.0138859218115787,-0.00680562761314737,0.889665415407778
6.21,1,0.0235094251330098,0.000152592547379986,-0.0139571316670227,0.0100609352905871,0.00700908434298736,-0.00682597328613137,-0.00615456607765943,-0.163223161514125,-0.0100202439446191,0.0371206803593046,0.0592771182388786,0.0167444888658305,-0.0206101667327901,-0.04401786350088,-0.0138859218115787,-0.0124718975391909,0.962340159306619
6.24,1,0.0232957955666779,0.000152592547379986,-0.0139978230129907,0.0127160456149988,0.00459812209438358,-0.010986663411359,-0.00411999877925962,-0.165257728812525,-0.011037527593819,0.0192775251523382,0.0686666463209937,0.00556454156112349,-0.0181178217922503,-0.0413525803399762,-0.0137943662831507,-0.0128482924893948,1.00856552832626
6.27,1,0.0230923388368379,0.000152592547379986,-0.0133976256599628,0.0161239458398185,0.00923693553473515,-0.0146590573849707,-1.01728364919991e-05,-0.161473433637501,-0.00818913337605925,0.0120242927335429,0.0590634886725466,0.00208543148085981,-0.0130619220557268,-0.0360830510371207,-0.0134281441694388,-0.0206915494247261,1.01927752515234
6.3,1,0.0225938698487299,0.000152592547379986,-0.0135196996978668,0.0198268583229062,0.010467848750267,-0.0191757967874182,-0.000823999755851924,-0.159520249031037,-0.00810775068412325,0.0147200944039226,0.0567339091158788,0.00421155430768761,-0.00838241726940723,-0.0308745587532172,-0.0133365886410108,-0.0263476465142776,1.02341786960458
6.33,1,0.021312092450738,-0.000620543026011943,-0.0135909095533107,0.0229499191259499,0.00823999755851924,-0.0231533758557899,-0.00293994974618773,-0.159967853836685,-0.0100609352905871,0.0149337239702546,0.0659098076316619,0.00451673940244758,-0.00586972665588346,-0.0271207820876695,-0.0128177739799188,-0.0264290292062136,1.01861629078036
6.36,1,0.0180873032827743,-0.00726340525528733,-0.0097557501958271,0.0259305602181056,0.00799584948271126,-0.0262560909858496,0.000518814661091952,-0.159723705760877,-0.00993886125268309,0.00444552954700359,0.0722576576026694,0.00242113508509578,-0.00207525864436781,-0.0200608335622222,-0.0065614795373394,-0.0288603371278013,1.0125837987406
6.39,1,0.0168156987212745,-0.000386567786695964,-0.00830103457747124,0.0299895219784132,0.0118615273496709,-0.0310881883195491,0.000803654082867926,-0.160212001912493,-0.00896226894945118,0.000172938220363984,0.0663472396008179,0.00310271513005971,0.00257372763247576,-0.0140079958494827,-0.00949125644703513,-0.0333058666748049,1.0074973804946
6.42,1,0.0150659708446506,0.000152592547379986,-0.00918607135227515,0.032614113793349,0.00458794925789158,-0.0344859157078768,0.00141402427238787,-0.160903754793949,-0.00940987375509914,0.00188197475101983,0.0537532680237231,0.00272632017985575,0.00622577593310343,-0.00858587399924721,-0.00879950356557919,-0.0349945575324768,1.00514745526495
6.45,1,0.0122786136458429,0.000152592547379986,-0.00815861486658325,0.0348521378215888,0.00784325693533128,-0.0337127801344849,0.00165817234819585,-0.160700298064109,-0.00928779971719515,-0.00076296273689993,0.0445773695079399,-0.00158696249275185,0.00989816990671509,-0.0021261228268278,-0.00724305958230333,-0.0368256681010366,1.00290943123671
6.48,1,0.00785342977182328,-0.0021566413363038,-0.00639871415346741,0.0370087791578926,0.00661234371979939,-0.0359914955086927,-0.0032247891679637,-0.162450025940733,-0.00892157760348318,-0.00142419710887987,0.0880967640207119,0.00374360382905566,0.00952177495651112,0.00183111056855983,-0.00442518387401959,-0.0370392976673686,1.00431328267261
6.51,1,0.00252286345001577,-0.00590024516535946,0.00188197475101983,0.0416170740887682,0.0158187607450585,-0.0444756411430199,0.00173955504013184,-0.160740989410077,-0.011078218939787,-0.00715150405387534,0.1313414919482,-0.00311288796655171,0.0149438968067466,0.0125024160486668,0.00196335744295582,-0.0485752942492955,1.00945056510107
6.54,1,-6.10370189519944e-05,-0.000183111056855983,0,0.0484633930478835,0.022003845332194,-0.0581072420422987,0.00230923388368379,-0.159438866339101,-0.00936918240913114,-0.0144250821456547,0.151890621662038,-0.00388602353994364,0.0226549068676819,0.0229194006164739,0.000244148075807978,-0.0583615629545986,1.00497451704459
6.57,1,-0.00179041922259184,0.000925728120771915,9.15555284279916e-05,0.0552690206610309,0.022156437879574,-0.0642923266294341,0.00808740501113926,-0.161147902869757,-0.0101016266365551,-0.0204880926948861,0.15637684255501,0.000834172592343923,0.0314747561062451,0.0334788048951689,0.0011291848506119,-0.065014598020366,1.00879950356558
6.6,1,-0.00248217210404777,0.00253303628650777,-0.000925728120771915,0.0618610187078463,0.0193589078442742,-0.0701417076123336,0.010488194423251,-0.161025828831853,-0.010752688172043,-0.0366832483901486,0.14895067191585,-0.00155644398327586,0.0426343577379681,0.0453505050813318,-0.000366222113711966,-0.0703146458326975,1.00853500981679
6.63,1,-0.00274666585283975,0.00516780093793552,0.00188197475101983,0.0701315347758416,0.0264798933886736,-0.0808943957843766,0.0010884935046439,-0.161880347097181,-0.00936918240913114,-0.0512609230831833,0.165583259580269,-0.00411999877925962,0.0506607257301553,0.0536311939858191,6.10370189519944e-05,-0.0820846176539405,1.01221757662689
6.66,1,-0.00417086296171962,0.000681580044963937,0.000457777642139958,0.076041952777693,0.0146488845484787,-0.0811181981872005,0.00804671366517126,-0.164118371125421,-0.0114444410534989,-0.053977070426547,0.138279366435743,-0.011068046103295,0.0558183538315989,0.0601926735231585,0.00195318460646382,-0.0819116794335765,1.0086469110182
6.69,1,-0.00736513362020732,-0.0065614795373394,0.00354014709921567,0.0796431368958607,0.00836207159642323,-0.0787987914670247,0.0141911069063387,-0.168390962452061,-0.00993886125268309,-0.0678833379111097,0.0945463423566393,0.00123091321553189,0.0621458581296223,0.0697144484796696,0.00716167689036734,-0.0789412111779127,0.988148645486821
6.72,1,-0.00933866389965514,-0.00201422162541581,0.00785342977182328,0.0804569638152206,-0.000396740623187963,-0.0737632374034852,0.00898261462243517,-0.17184972685934,-0.00989816990671509,-0.0834782962533443,0.0833053580329803,0.0173955504013184,0.0678121280556658,0.0773644215216529,0.00691752881455936,-0.0740989410077212,0.883561713512579
6.75,1,-0.0128686381623788,-0.00778221991637928,0.00918607135227515,0.0779035818557288,-0.0117699718212429,-0.0641397340820541,0.00645975117241941,-0.174616738385164,-0.00717184972685934,-0.0900601214636677,0.0837122714926603,0.0160323903113905,0.0728375092827133,0.0859401226844081,0.0116377249468469,-0.064699240089114,0.635405540126753
6.78,1,-0.0136824650817387,-0.00053916033407595,0.0102542191839351,0.0694601275673696,-0.0336110517695649,-0.0468866033916237,0.00422172714417961,-0.198624632506282,-0.0126651814325388,-0.0714946948657694,0.0785037792087568,0.0828170618813644,0.0776696066164129,0.0915758741009756,0.00879950356557919,-0.0425021108635721,0.342804244107384
6.81,3,-0.0128381196529028,0.00478123315123956,0.00800602231920326,0.0526546016825872,-0.0617898088524023,-0.0280058188624734,0.00523901079337952,-0.228736228522599,-0.0232449313842179,-0.0149235511337626,0.0589515874711346,0.302336700542212,0.0819828892890204,0.0950346385082552,0.00631733146153142,-0.00946073793755913,0.0983713288776309
6.84,3,-0.0118818730226549,0.00410982594276762,0.00280770287179174,0.0284127323221534,-0.0766930143131809,-0.0032553076774397,0.0102847376934111,-0.221655934324168,-0.00843328145186722,-0.0478835413678396,0.010945972065391,0.335551011688589,0.0838343455305643,0.0959298481195512,0.00444552954700359,0.0272428561255735,0.021535894853562
6.87,3,-0.0123091321553189,0.000295012258267973,0.00626646727907142,0.0128991566718548,-0.0291655222225613,0.0186264636168503,0.0187892290007223,-0.202083396913561,0.00584938098289946,0.0285144606870734,0.0478021586759036,0.0510472935168513,0.0855637277342041,0.098076316619363,0.00731426943774733,0.0155440941597746,0.00571713410850347
6.9,3,-0.0122480951363669,0.000152592547379986,0.00735496078371532,0.0142216254158147,0.0114851323994669,-0.000732444227423933,-0.010671305480107,-0.205786309396649,0.00833155308694723,0.0454827519557278,0.0417798394726402,-0.256497899309264,0.0883002207505519,0.100761945453251,0.00747703482161931,-0.0227261167231259,0.00246182643106377
6.93,3,-0.00924710837122715,0.00820947904904324,0.0267342143009735,0.00998972543514308,-0.010345774712363,0.00189214758751183,-0.0101423179825231,-0.209082308420057,-0.0043234555090996,0.0395825067903684,0.0689006215603097,-0.335581530198065,0.0912706890062156,0.100761945453251,0.0508540096235033,0.0443942584510839,0.00179041922259184
6.96,3,0.0358236437065747,0.156509089429406,0.116489150669881,0.0307423118788212,0.13065482548499,0.0943327127903073,0.163772494684693,-0.294167912839137,-0.0173039948728904,0.0345571255633208,0.811639759514145,-0.146549882503739,0.111758781701102,0.076036866359447,0.120298877936135,0.118706829025137,0.00167851802117985
6.99,3,0.150847905921608,0.393836278369498,0.0471867020681377,0.113533941668956,0.319371115248065,0.0156051311787266,0.0671508936836858,-0.316120893988871,-0.02147485783461,-0.135659861039054,1.4826502273629,0.12699260434787,0.185476241340373,0.0347097181107008,0.043519394512772,-0.00161748100222785,0.00167851802117985
7.02,3,0.282626829838964,0.453138828699606,0.0199591051973022,0.192734560177414,0.248791975666575,-0.0209967345194861,-0.02218695638905,-0.273211869665619,-0.0177109083325704,0.0736869411297952,1.48888617613249,0.49763481551561,0.277255572171189,-0.00518306019267352,0.0142775760165207,-0.0303048799096652,0.00167851802117985
7.05,3,0.408892076377656,0.437411623482976,0.0152439954832606,0.233217362997325,0.114301990824101,-0.0140486871954507,-0.0269274981943215,-0.215287738680176,1.01728364919991e-05,0.146743166397087,1.33058158106225,0.352076784569842,0.361908831039359,-0.0467594429354737,0.00961841690318512,-0.00601723278501745,0.00167851802117985
7.08,3,0.52686646117537,0.411109754732912,0.0076092816960153,0.247830642618081,0.0452080853704438,0.00568152918078148,-0.0168360443942585,-0.191300190232042,0.0160222174748985,0.0554368724631489,1.18609678436638,0.102994883063245,0.436674092837306,-0.0899482202622557,0.00603757845800144,0.0137129835912147,0.00167851802117985
7.11,3,0.631956948555966,0.364543595690786,0.00368765322834966,0.253425702688681,0.0196590065207882,0.0116021200191249,-0.0297555467390973,-0.163935260068565,0.0231432030192979,0.00278735719880774,1.02280749941506,-0.033158360545671,0.502700888088626,-0.12900173955504,0.00891649118523718,0.0200913520716982,0.00167851802117985
7.14,3,0.727469710379345,0.324457533494064,0.00818404695781325,0.256497899309264,0.0145217240923287,0.0182042909024323,-0.0617999816888943,-0.129754529455448,0.0208034506261381,-0.0591703034557126,0.78199611397646,-0.113747571235288,0.557486699016287,-0.169754122541988,0.0102796512751651,0.021785129347616,0.00167851802117985
7.17,3,0.826085187332784,0.326832890814946,-0.0011190120141199,0.257057405316324,0.00283822138126774,0.0211645863216041,-0.0725831883704133,-0.10676391898353,0.0163274025696585,-0.121341593676565,0.432309945982238,-0.138050477614673,0.592618589841405,-0.233217362997325,-0.00428785058137761,0.0240282397941018,0.00167851802117985
7.2,3,0.912915433210242,0.290714234850103,-0.0128279468164108,0.257489750867234,0.00743125705740532,0.0249336222418897,-0.0577918841110467,-0.102206488235115,0.0100202439446191,-0.183736686300241,0.146326080100915,-0.108605202388582,0.609937843969034,-0.302743614001892,-0.0142368846705527,0.0235094251330098,0.00167851802117985
7.23,3,0.979649240597756,0.224250007629627,-0.0102999969481491,0.257611824905138,0.000666320790225939,0.0234992522965178,-0.08666239407534,-0.0671915850296538,0.0065614795373394,-0.259269997253334,-0.302626626382234,-0.170155949583422,0.60462762332021,-0.374797814874722,-0.00945056510106713,0.0251675974812057,0.00167851802117985
7.26,3,1.02878912727236,0.166651407411929,-0.00635802280749942,0.25828323211361,0.00747194840337331,0.0249285358236437,-0.0367137668996246,-0.0914232815535956,-0.00312306080304371,-0.327366964730776,-0.665847753329061,-0.210150456251717,0.574419385357219,-0.454120507421084,-0.00456251716666158,0.0230974252550839,0.00167851802117985
7.29,3,1.05882951343323,0.10465305541144,0.00224311044648579,0.260231330301828,0.00819930621255125,0.0225074007385479,-0.0159001434369945,-0.0888800724305958,-0.0228380179245379,-0.376608579770297,-1.02515742464471,-0.189102857549771,0.522995696890164,-0.535610014140243,0.00571204769025747,0.021393475142674,0.00167851802117985
7.32,3,1.06879889319539,0.0429598885057121,0.00417594937996562,0.262260811181982,0.00813318277535325,0.0133925392417168,0.0737835830764692,-0.157058422599974,-0.0290434481846573,-0.307290871913816,-1.20831934568316,-0.15006968392997,0.453789890235094,-0.614790286975717,-0.00673441775770338,-0.0262866094953256,0.00167851802117985
7.35,3,1.04919583727531,-0.0549740084027629,-0.010401725313069,0.25591804762922,-0.0364848780785546,-0.0262408317311116,0.0354116438286487,-0.111260312712994,-0.0420443332214321,-0.215653960793888,-1.40182704143396,-0.0785241248817408,0.376634011861527,-0.672302418083234,-0.00487787509791355,-0.0474105044709616,0.00167851802117985
7.38,3,1.01210567542548,-0.116484064251635,0.00826542964974924,0.227805413983581,-0.112923571479436,-0.0238858200832138,0.109144362722658,-0.169164098025452,-0.0385245317952005,-0.086906542151148,-1.50338246813359,-0.0667388938057599,0.289971617786187,-0.72192042807296,0.0121565396079389,-0.00455743074841558,0.00167851802117985
7.41,3,0.970478428500219,-0.13457136753441,0.0181279946287423,0.190048931343526,-0.131839960936308,-0.0043946653645436,0.141127760653503,-0.175939207129124,-0.0380769269895525,-0.0344401379436628,-1.43886633910133,-0.0466526281523077,0.202139347514267,-0.768110192164881,0.0206813765882341,0.0260729799289936,0.00167851802117985
7.44,3,0.927381206701865,-0.140115563422549,0.0252794986826177,0.165629037344483,-0.0688344981231117,0.0149795017344686,0.170547603788364,-0.172439751375876,-0.0336822616250089,0.0332855210018209,-1.25349691254412,-0.0568661559902748,0.121311075167089,-0.805831069877214,0.0269732759585355,0.0200710063987142,0.00167851802117985
7.47,3,0.88751386048972,-0.130558183538316,0.0281177200638854,0.162236396374401,-0.0032909126051617,0.00447604805647959,0.160740989410077,-0.153152053387046,-0.0235094251330098,0.0957365642262032,-0.997375408185064,-0.0357524338511307,0.054205959247617,-0.833058666748049,0.0291858678955453,-0.00208543148085981,0.00167851802117985
7.5,3,0.855606758832565,-0.105207475000254,0.0281991027558214,0.162638223415835,-0.00201422162541581,-0.00318409782199571,0.188492487360251,-0.129734183782464,-0.00249234494053977,0.125604012166712,-0.633360799991862,0.00274157943459375,0.00333669036937569,-0.852107303079318,0.0279091769157994,-0.00398775190486363,0.00167851802117985
7.53,3,0.840088096764021,-0.0528173670664591,0.02208522802413,0.15668202764977,-0.0234941658782718,0.00233975239315978,0.416486098818934,-0.0703655100151575,0.00776187424339529,0.125247962889492,0.518555253761406,0.165049185664439,0.00356049277219967,-0.836359752189703,0.0204321420941801,0.00487787509791355,0.00167851802117985
7.56,3,0.850754315825882,0.02198349965921,0.0087638986378572,0.15556301563565,0.000249234494053977,0.00271614734336375,-0.0497553432823674,-0.00521866512039552,0.0231228573463139,0.1736808374279,0.395255389060132,-0.156132694479202,0.0355286314483067,-0.814961190628783,0.00357575202693767,-0.000132246874395988,0.00167851802117985
7.59,3,0.856451104261401,0.010376293221839,0.00130212307097588,0.156163212988678,0.000152592547379986,-0.00153101189204586,0.0644856105227821,-0.115716015096489,0.00847397279783522,0.0485091708120975,0.26120792260506,-0.0615354879401023,0.0583361308633686,-0.797901343831701,0.00249743135878577,-0.00128177739799188,0.00167851802117985
7.62,3,0.842412589902442,-0.0399385560675883,0.0097455773593351,0.156951607816808,0.000152592547379986,-0.00174464145837784,-0.0804976551611886,-0.266558834599851,0.117669199702953,-0.125614185003204,0.234631387269712,0.0118767866044089,0.0967080701111891,-0.745470544551937,0.0145573290200507,-0.00178024638609984,0.00518306019267352
7.65,3,0.833897925758639,-0.0266121402630696,0.0150710572628966,0.157750175481429,0.000152592547379986,-0.00259915972370576,-0.0811283710236925,-0.361410362051251,-0.0400097659230323,0.150028992584002,0.200654113386436,-0.0950193792535172,0.109683523056734,-0.723965168207851,0.0147963906776126,-0.00228888821069979,0.0753959776604511
7.68,3,0.846054465366578,0.0303201391644032,0.00737530645669932,0.157094027527696,0.000152592547379986,-0.00169886369416384,0.0710572628966135,-0.022247993408002,-0.0144759463281147,0.0409253212073122,0.226167587308369,0.184464044109419,0.124200160730817,-0.7216152429782,0.00243639433983378,-0.00202439446190781,0.0226955982136499
7.71,3,0.860591448713645,0.0381633960997345,-0.00180059205908383,0.15655486719362,0.000152592547379986,-0.00170903653065584,0.0187281919817703,-0.176590268664612,0.0199692780337942,-0.02144942574338,0.278837448245694,0.0990325632496109,0.139316995757927,-0.721025218461664,-0.0022075055187638,-0.00167851802117985,0.0118717001861629
7.74,3,0.872402111880856,0.0308847315897092,6.61234371979939e-05,0.157480595314392,0.000152592547379986,-0.00182093773206783,0.0247912025310017,-0.201635792107913,-0.00989816990671509,0.00657673879207739,0.265958637246824,0.0768761253700369,0.155313781141596,-0.716854355499944,-0.000691752881455936,-0.00210577715384381,0.0700959298481196
7.77,3,0.898220770897549,0.075960570085757,-0.00696839299701936,0.159133681244341,0.00289925840021973,-0.00250760419527777,0.0151270078636026,-0.164321827855261,0.00489313435265155,0.00197861669769382,0.289391766106143,-0.0417340617084262,0.172083702098656,-0.725903093559577,-0.0118462680949329,-0.00290943123671173,0.0876593320515559
7.8,3,0.920677307453637,0.0679189428388318,-0.0135247861161128,0.163619902137313,0.010447503077283,-0.00415051728873562,0.0352081870988088,-0.148716696676534,0.00357066560869167,-0.000289925840021973,0.294259468367565,-0.043468530330312,0.189840388195441,-0.730592771182389,-0.0155135756502986,-0.00877407147434919,0.0972523168635111
7.83,3,0.935631377096876,0.0452487767164118,-0.0386923835973184,0.17111219621367,0.0232042400382499,-0.00661234371979939,0.032888780378633,-0.160150964893541,0.00680562761314737,0.0163121433149205,0.294289986877041,-0.0695720287687816,0.207393617562385,-0.727993611458683,-0.0537074902595091,-0.0126397493413088,0.114561398154647
7.86,3,0.938454339223406,0.0033061718598997,-0.0675984984893338,0.183629871517075,0.0415814691610462,-0.0128177739799188,0.0576494644001587,-0.150201930804366,0.00377412233853165,0.0683970661539557,0.268964710430209,-0.00971505884985911,0.231025116733299,-0.707185074414299,-0.0678833379111097,-0.0230923388368379,0.128935616117842
7.89,3,0.943322041484827,0.00666829432050539,-0.0987375509913429,0.201681569872127,0.0590431429995626,-0.0253608813745537,0.0493891211686555,-0.140334279407127,-0.00320444349497971,0.100853500981679,0.252800073244423,0.0288857692190313,0.254122541988383,-0.688970610675375,-0.0993428347626169,-0.0385601367229225,0.172887356181524
7.92,3,0.948174484491511,0.00783308409883928,-0.125410728273364,0.219229712820826,0.054160181483403,-0.0408591977701142,0.0399487289040803,-0.168268888414157,-0.00420138147119561,0.0837631356751203,0.196193324584694,0.0190282906582842,0.274493647063611,-0.673492639952798,-0.137277342041281,-0.0528122806482131,0.230445265053255
7.95,3,0.940783918780074,-0.0342621133050528,-0.194931892859686,0.226254056418551,0.00940987375509914,-0.0582801802626626,0.0497960346283354,-0.163101087476221,-0.00684631895911537,0.0499689728486994,0.065563931190934,0.00533056632180751,0.28288623716951,-0.657684052044232,-0.201279742830693,-0.0620746482741783,0.280048015788242
7.98,3,0.904883978799809,-0.134830774864956,-0.237220374156926,0.224402600177007,-0.0164393037710705,-0.0637633391318501,0.0784834335357728,-0.106499425234738,-0.00338755455183569,0.0411491236101362,-0.157577237261065,0.0358795943072807,0.280922879726554,-0.623747469506923,-0.244890692871893,-0.0678935107476017,0.325693533127842
8.01,3,0.84245328124841,-0.222062847783848,-0.235073905657114,0.218024231696524,-0.0291858678955453,-0.0676188441623178,0.0401114942879523,-0.184952340261035,0.00483209733369956,0.0913825902076276,-0.337371949420657,0.0264392020427056,0.265032909126052,-0.577186396883043,-0.222652872300384,-0.0701213619393495,0.411542100283822
8.04,3,0.799208553320922,-0.165857926165553,-0.238024028239794,0.203660186569821,-0.0590227973265786,-0.0620644754376863,0.0516271451968952,-0.118625446333201,-0.010467848750267,0.0971200699891151,-0.393149611906288,0.086499628691468,0.228614154484695,-0.570380769269896,-0.264442884609516,-0.0686666463209937,0.473270872117272
8.07,3,0.726279488509781,-0.255277158930225,-0.240323089286986,0.179163996297088,-0.0967233293659271,-0.0577817112745547,0.0199692780337942,-0.164810124006877,-0.00456760358490758,0.0510066021708833,-0.551764478489537,0.0278023621326334,0.192225918352814,-0.533799249244667,-0.273527227596871,-0.0631529689423302,0.536301767021699
8.1,3,0.646666870123397,-0.284798730430006,-0.242103335673086,0.144525488041831,-0.122745445112461,-0.0559811192154709,0.0283110039572334,-0.158584348073773,-0.00578834396394747,0.0306202378409172,-0.557247637358725,0.000803654082867926,0.159621977395957,-0.486800744651631,-0.273913795383567,-0.0481378622801396,0.594551428774885
8.13,3,0.560268969796848,-0.305948057496872,-0.241991434471674,0.118493199458805,-0.0815149388103885,-0.0490941089103875,0.0293282876064333,-0.159072644225389,-0.011118910285755,-0.0391247291482284,-0.590868861964782,-0.0739565212968332,0.135125787123224,-0.424899034597817,-0.274208807641835,-0.0480056154057436,0.624266284168015
8.16,3,0.463911862544633,-0.338653726818649,-0.236589658294422,0.0918301950132756,-0.0968759219133071,-0.0401928769798883,0.0134993540248828,-0.162816248054445,0.000233975239315978,0.0265409304076256,-0.670003357036042,0.0144352549821467,0.0937223426007874,-0.36995554470453,-0.273985005239011,-0.0377819147312845,0.633309935809402
8.19,3,0.358378856776635,-0.368775495671458,-0.205674408195237,0.0560421562344228,-0.12711976480402,-0.0294910529903053,0.00503555406353954,-0.149835708690654,-0.00603249203975545,0.0320037436038291,-0.78570919929604,0.0140995513779107,0.0508540096235033,-0.307301044750308,-0.204636778873053,-0.0160018718019145,0.651590522985524
8.22,3,0.245765556810205,-0.388490452792952,-0.0988901435387229,0.0149032054607786,-0.133091219824824,0.000223802402823979,0.00133264158045188,-0.167170222073021,0.00304167811110772,0.010600095624663,-0.844772687968586,-0.0358083844518367,0.000925728120771915,-0.244677063305561,-0.0777815078178248,0.00856552832626321,0.657887508774072
8.25,3,0.162531408632669,-0.289783420311085,-0.0249641407513657,-0.0157577237261066,-0.0833663950519323,0.011159601631723,-0.021413820815658,-0.159357483647165,-0.00147506129133986,0.0423800368256681,-0.534094261502935,0.0339569282102929,-0.0420545060579241,-0.204504531998657,0.00234992522965178,0.0236518448438978,0.604622536901964
8.28,3,0.115756706442457,-0.159540594704021,0.0334686320586769,-0.0272733746350495,-0.0152999460839666,0.0189621672210863,-0.0346385082552568,-0.160374767296365,-0.0175481429486984,-0.011281675669627,-0.244026001770074,0.0949023916338593,-0.0711284727520575,-0.186834315012055,0.0487685781426435,0.0254829554124577,0.529943744214199
8.31,1,0.118137150181585,0.0158492792545345,0.032593768120365,-0.0278532263150934,0.00991851557969909,0.0227159438866339,-0.076428520564389,-0.147434919278542,-0.0086774295276752,-0.00242113508509578,0.147129734183782,0.108116906236966,-0.101270587277851,-0.219316181931008,0.0232449313842179,0.0238451287372458,0.51768547624134
8.34,1,0.128126875616728,0.0527868485569831,-0.00239061657561978,-0.0239265114291818,0.0269783623767815,0.0157780693990905,-0.0181992044841863,-0.1685944191819,-0.0121768852809229,-0.0290027568386893,0.481307412945952,0.0519526759646392,-0.0826542964974924,-0.210709962258777,-0.0143233537807347,0.00496434420809554,0.58104190191351
8.37,1,0.131117689545376,0.0175379701122064,-0.0139571316670227,-0.0162358470412305,0.0249132765689057,-0.00604266487624744,0.00694804732403536,-0.155980101931822,-0.0054221218502355,-0.0228278450880459,0.487665435753451,0.0197861669769382,-0.0518509475997192,-0.182907600126143,-0.00907417015086317,-0.00725323241879533,0.694143498031556
8.4,1,0.153182571896522,0.0691040782901497,-0.0334889777316609,-0.000691752881455936,0.0629495122124902,-0.0114546138899909,-0.0115665150914029,-0.168146814376253,0.00300098676513972,0.00920641702525915,0.478133487960448,0.00569678843551948,-0.0258695231991536,-0.178950366730756,-0.0493484298226875,-0.0346079897457808,0.823358867152928
8.43,1,0.167566962696209,0.043366801965392,-0.0579343038219347,0.0249437950783817,0.0724102501500493,-0.0607623523667104,0.0130517492192348,-0.160863063447981,-0.00900296029541917,0.0161341186763105,0.351807204402804,-0.00779239275287128,0.000823999755851924,-0.166590370392977,-0.0573035879594307,-0.0750348419649851,0.893378500727358
8.46,1,0.17439293598234,0.0187383648182623,-0.0522375153864152,0.0353302611367128,0.0286772260709454,-0.0455539618111718,0.0146794030579546,-0.164647358623005,-0.00570696127201147,0.00787377544480728,0.309315266375724,-0.010589922788171,0.0193487350077822,-0.154810225735242,-0.0525223548081912,-0.0407523829869482,0.927579577013459
8.49,1,0.179062267932168,0.0114851323994669,-0.0551469466231269,0.0523799350973032,0.0555640329192989,-0.0710063987141535,0.00296029541917173,-0.154230374055198,-0.0102237006744591,-0.00184128340505183,0.296446628213345,-0.00932849106316314,0.0376496678568885,-0.141198970508947,-0.0557674896491389,-0.0767133599861649,0.932961007517726
8.52,1,0.181371501815851,0.00345876440727968,-0.0571001312295907,0.0644957833592741,0.0337432986439609,-0.0710776085695975,0.0171208838160344,-0.155858027893918,-0.00403861608732363,-0.00404878892381563,0.264483575955484,0.000732444227423933,0.0571001312295907,-0.124047568183437,-0.0572934151229387,-0.0693583992024496,0.928576514989675
8.55,1,0.184453871272927,0.00698873867000336,-0.0663167210913419,0.0769371623889889,0.0364085818048646,-0.0809249142938526,0.00772118289742729,-0.160293384604429,-0.00770083722444329,-0.00421155430768761,0.2593768120365,0.00899278745892717,0.076214890998057,-0.108025350708538,-0.0667846715699738,-0.0836003702912483,0.923683380637023
8.58,1,0.186295154677979,0.00374360382905566,-0.0689921770887376,0.087435529648732,0.032868434705649,-0.0883409120965199,0.0239570299386578,-0.154677978860846,-0.00489313435265155,0.00142419710887987,0.255897701956236,0.0127058727785068,0.0942716757713553,-0.0917996765037996,-0.0696839299701936,-0.0879645171463159,0.922564368622903
8.61,1,0.190211696727399,0.0101728364919991,-0.0800602231920326,0.101514735353659,0.0420341603849401,-0.106601153599658,0.0172022665079704,-0.159845779798781,-0.00627664011556342,0.0022278511917478,0.249519333475753,0.0122684408093509,0.110792362234362,-0.0791955320902127,-0.0809147414573606,-0.10935799228899,0.915870642211168
8.64,1,0.192449720755638,0.00442518387401959,-0.0854111351868241,0.112735374004334,0.0351369772433648,-0.110558386995046,0.0284737693411054,-0.15337585578987,-0.00493382569861955,0.00268562883388775,0.232744326100447,0.0125024160486668,0.128716900133264,-0.0635090182195502,-0.0853094068219042,-0.112420016073082,0.9102348907946
8.67,1,0.195735546942554,0.00805688650166326,-0.0917284666483556,0.121870581174149,0.0195521917376222,-0.115349792982777,0.021841079948322,-0.165257728812525,-0.0130314035462508,-0.000376394950203965,0.218990651163264,0.0278735719880774,0.143162327951903,-0.0523188980783512,-0.0924202195298115,-0.114444410534989,0.909339681183304
8.7,1,0.196508682515946,0.00123091321553189,-0.0951872310556352,0.13123976358328,0.0334381135492009,-0.12706890062156,0.0371410260322886,-0.149550869268878,-0.00481175166071556,-0.00210577715384381,0.211544134851121,0.0076499730419833,0.165430667032889,-0.0308643859167252,-0.0952991322570472,-0.129571418398592,0.909716076133508
8.73,1,0.196946114485102,0.000152592547379986,-0.0990834274320709,0.141727958006531,0.0247505111850337,-0.139622180852687,0.010366120385347,-0.168268888414157,-0.0123803420107629,-0.0231025116733299,0.209784234138005,0.00809757784763126,0.179672638121687,-0.0170191554511144,-0.0995005137282428,-0.141056550798059,0.908200323496201
8.76,1,0.19724112674337,0.000152592547379986,-0.10437330240791,0.14839116590879,0.0206203395692821,-0.140334279407127,0.032339447208065,-0.157078768272958,-0.00298064109215573,-0.0398775190486363,0.215653960793888,-0.00179041922259184,0.188818018127995,-0.00819930621255125,-0.104790388704082,-0.140568254646443,0.91272723573514
8.79,1,0.196457818333486,-0.00299081392864772,-0.108330535803298,0.157333089185258,0.0260221157465336,-0.15490178126367,0.0312814722128971,-0.158665730765709,-0.00753807184057131,-0.0575477360352387,0.193212683492538,-0.0257983133437096,0.19810581784519,0.00173955504013184,-0.108757794935962,-0.157851903846349,0.905311237932473
8.82,1,0.19296853541673,-0.0125736259041108,-0.105329549038158,0.161473433637501,0.00822982472202724,-0.14879807936847,0.0418612221645761,-0.162816248054445,-0.00534073915829951,-0.0670796838282418,0.122613198238065,-0.00712098554439934,0.205694753868221,0.0127974283069348,-0.106245104322438,-0.151209041617074,0.901231930499181
8.85,1,0.183828241828669,-0.0312204351939451,-0.0962604653055412,0.161824396496475,-0.00616473891415143,-0.146092104861599,0.0469272947375917,-0.160191656239509,-0.00967436750389111,-0.0960163172297332,0.00738547929319132,0.00167343160293385,0.209901221757663,0.0261645354574216,-0.0969929095329651,-0.144912055828527,0.851415550197862
8.88,1,0.162933235674103,-0.0707775098930835,-0.0702027446312855,0.157099113945942,-0.0242011780144658,-0.130624306975514,0.0443840856145919,-0.161269976907661,0.00576799829096347,-0.0967436750389111,-0.162282174138615,-0.0193334757530442,0.210979542425815,0.0481734672078616,-0.0678629922381258,-0.132017985574918,0.681249427777947
8.91,1,0.136855169326863,-0.0857010610268461,-0.0449639372946359,0.140858180486465,-0.0628477838475702,-0.0916979481388796,0.0292672505874813,-0.177200638854132,-0.00285856705425174,-0.0907976521093376,-0.266487624744408,-0.0307168797875912,0.197780287077446,0.0609810683512884,-0.0419527776930041,-0.0892666402172918,0.478560747093112
8.94,1,0.1075014496292,-0.0950702434359773,-0.0285042878505814,0.116326385286009,-0.0884782453891619,-0.054094058046205,0.0272733746350495,-0.181147699413027,-0.000233975239315978,-0.04350922167628,-0.366440829696544,0.0201676483453881,0.17884355194759,0.0714336578468174,-0.0197607348857082,-0.0498418123925494,0.249966938281401
8.97,3,0.0769066438795129,-0.097521897030549,-0.00495417137160354,0.0822372102013204,-0.112826929532762,-0.0120802433342489,0.0297555467390973,-0.217118849248736,-0.0153711559394106,0.0177617725150304,-0.433459476505834,0.122023173721529,0.154210028382214,0.0774254585406049,0.00134281441694388,0.00292469049144973,0.0708080284025595
9,3,0.054500971505885,-0.065218054750206,0.00318918424024171,0.0577511927650787,-0.0594805749687185,0.000681580044963937,0.0611082288074384,-0.248146000549333,-0.0195623645741142,-0.100192266609699,-0.398973560797957,0.460290332753482,0.127648752301604,0.0732596819971313,0.00123599963377789,-0.00675984984893338,0.0159510076194545
9.03,3,0.0314849289427371,-0.0609861547695344,0.00414034445224362,0.0465152948596657,-0.0208950061545661,-0.00943021942808313,0.0495518865525274,-0.218400626646728,-0.0166325876644185,-0.0480463067517116,-0.103681549526454,0.711096530045473,0.115029348633279,0.0836664937284463,0.00935392315439314,-0.0258847824538916,0.00455234433016958
9.06,3,0.0133925392417168,-0.0467696157719657,0.0147251808221686,0.0377920875677765,-0.0242825607064018,-0.0199845372885322,0.0394807784254484,-0.205501469974873,0.0165105136265145,0.021647796054974,0.0131687368388928,0.548305714082258,0.11134169540493,0.098030538855149,0.0165715506454665,-0.0194657226274402,0.0022176783552558
9.09,3,0.00692770165105136,-0.00954720704774112,0.00925219478947315,0.0248522395499537,-0.0379294208604185,-0.000640888698995941,0.0305490279854732,-0.199641916155482,0.0252794986826177,-0.00508133182775353,0.155145929339478,0.211249122592853,0.117058829513433,0.110207424136072,0.0277108066042055,0.0310474969735811,0.00173446862188584
9.12,3,0.0372987049979146,0.115955076754051,0.125817641733044,0.0374258654540646,0.102781253496913,0.0938596758934294,0.184545426801355,-0.251930295724357,0.0157577237261066,-0.0640634378083641,0.851527451399274,0.0021515549180578,0.141687266660563,0.104490290027568,0.129937640512304,0.124897000030519,0.00178024638609984
9.15,3,0.142506179998169,0.362620929593799,0.0590990936002686,0.117124952950631,0.307418032369966,0.0139215267393007,0.11134169540493,-0.296182134464553,-0.00615456607765943,-0.0290790531123793,1.60659098076317,0.102821944842881,0.222057761365602,0.0796482233141067,0.0559709463789788,3.56049277219967e-05,0.00167851802117985
9.18,3,0.266858933276365,0.433225501266518,0.0255185603401797,0.19314656005534,0.240974150822474,-0.0177363404238004,-0.00523901079337952,-0.267189550462355,-0.0120548112430189,-0.0533921323282571,1.66187017426069,0.043605863622954,0.323323262225206,0.0565202795495468,0.0230414746543779,-0.0269681895402895,0.00167851802117985
9.21,3,0.386989959410382,0.423571479435611,0.0208390555538601,0.233308918525753,0.116545101270587,-0.0131178726564328,-0.0120548112430189,-0.22222561316772,-0.00208543148085981,0.021540981271808,1.5668101036612,-0.145156203904335,0.420168665629037,0.0332550024923449,0.0158645385092725,-0.00670389924822738,0.00167851802117985
9.24,3,0.50302641885637,0.407956175420392,0.0173548590553504,0.248171432640563,0.0463423566393017,0.00456251716666158,0.00293994974618773,-0.187454858038067,-0.00601214636677145,-0.0300149540696432,1.42062135685293,-0.30085146641438,0.508941923276467,0.00606809696747744,0.0123345642465489,0.0133620207322408,0.00167851802117985
9.27,3,0.61042614012065,0.378902554399243,0.0135909095533107,0.253481653289387,0.0200862656534522,0.0118004903307189,-0.0021871598457798,-0.168228197068189,-0.00568661559902748,0.0588854640339366,1.28891364279102,-0.305134230577512,0.590202541174556,-0.0199896237067782,0.0097760958688111,0.0201930804366181,0.00167851802117985
9.3,3,0.711574653360597,0.354207993814915,0.0100202439446191,0.256823430077008,0.0173904639830724,0.0174972787662384,-0.0170598467970824,-0.157506027405622,0.00198370311593982,-0.0204117964211961,1.1333099358094,-0.293125197098707,0.662846766563921,-0.0484786523026215,0.0043081962543616,0.0197251299579862,0.00167851802117985
9.33,3,0.804172897529018,0.321604052858058,-9.66419466739911e-05,0.259188614561398,0.00935900957263914,0.0191808832056642,-0.0291655222225613,-0.15469832453383,-0.00277718436231574,-0.0144250821456547,0.927167577135533,-0.250302641885637,0.724407686595253,-0.0795464949491867,-0.00011190120141199,0.0210272530289621,0.00167851802117985
9.36,3,0.884390799686677,0.273227128920357,-0.000645975117241941,0.258395133315022,0.00021362956633198,0.022024191005178,-0.0607013153477584,-0.112582781456954,-0.00196335744295582,-0.0102186142562131,0.618416903185115,-0.182760093997009,0.771258685059155,-0.11291848506119,-0.00115461694184189,0.0252082888271737,0.00167851802117985
9.39,3,0.959903764966786,0.250450148014771,-0.00740582496617532,0.25790175074516,0.00288399914548173,0.0251167332987457,-0.0878424431084119,-0.0842412589902442,0.0117496261482589,0.0127262184514908,0.138391267637155,-0.10383922849208,0.792764061403241,-0.166885382651245,-0.010498367259743,0.0255490788496556,0.00167851802117985
9.42,3,1.02090517899106,0.203380433566291,-0.0139011810663167,0.25899533066805,0.00521357870214952,0.0243537705618458,-0.0517695649077832,-0.0999888098798588,0.0164494766075625,-0.021861425621306,-0.250343333231605,-0.0577257606738487,0.788588112023275,-0.232083091728467,-0.0140334279407127,0.022217474898526,0.00167851802117985
9.45,3,1.05891598254341,0.127618233792128,-0.00505589973652353,0.258267972858872,0.000152592547379986,0.0238451287372458,-0.0487990966521195,-0.0880662455112359,0.0152083905555386,-0.0569831436099328,-0.657689138462478,-0.0498519852290414,0.760551774651326,-0.298125146234525,-0.0010834070863979,0.0253761406292917,0.00141911069063387
9.48,3,1.0812402722251,0.0749687185277871,0.00581377605517747,0.259076713359986,0.00747194840337331,0.0248776716411837,-0.0278227078056174,-0.098422193060091,0.0171819208349864,-0.116560360525325,-1.03212073122349,-0.054562008524837,0.708868678853725,-0.372127445295572,0.0102084414197211,0.0226040426852219,0.00152592547379986
9.51,3,1.09283221940774,0.0445315917437259,0.00665303506576739,0.260734885708182,0.00770592364268929,0.0160832544938505,0.0400911486149683,-0.158035014903205,0.0164087852615945,-0.192464980010376,-1.30057171341085,-0.0950346385082552,0.636778873053173,-0.455834630369986,-0.00615456607765943,-0.0197149571214942,0.00158187607450585
9.54,3,1.07594022441277,-0.0462101097649057,-0.0139062674845627,0.25546026998708,-0.0318257189652191,-0.0234331288593198,0.0390128279468164,-0.144220302947071,0.00127160456149988,-0.252952665791803,-1.42221849218218,-0.122913296914579,0.556143884599343,-0.519613228756574,-0.0098066143782871,-0.0484379609566535,0.00167851802117985
9.57,3,1.03972492650126,-0.11294391715242,0.00567135634428948,0.228914253161209,-0.107786289050976,-0.0190384634947762,0.0489822077089755,-0.17195145522426,-0.00422172714417961,-0.246843877478357,-1.60808130130924,-0.0970946378978851,0.463235368917915,-0.576230150252795,0.0087435529648732,-0.0076245409507533,0.00167851802117985
9.6,3,1.00102745648569,-0.125675222022156,0.0137129835912147,0.198349965920998,-0.0986459954629149,0.00815352844833725,0.365805027415794,-0.223670155949583,-0.00133264158045188,-0.177663502914518,-0.639596748761457,-0.0464135664947457,0.381659393088575,-0.619129001739555,0.0164799951170385,0.00988799707022309,0.00167851802117985
9.63,3,1.00690735597807,0.0147709585863826,0.00776696066164129,0.163289284951323,-0.120100507624541,0.0171157973977884,-0.0171005381430504,0.0909756767479476,-0.0499588000122074,-0.149810276599424,0.597359131646677,-0.151936399426252,0.402722251045259,-0.603930784020508,-0.00424207281716361,0.0356913968321787,0.00167851802117985
9.66,3,1.05949074780521,0.160908841212195,-0.0377513962218085,0.148782820113732,-0.0251625110629597,0.0239214250109358,-0.0188502660196743,-0.157648447116509,-0.0123599963377789,-0.175710318308054,0.313496302173935,-0.10948515274514,0.427340515355897,-0.631921343628244,-0.0475529241818496,0.0166325876644185,0.00167851802117985
9.69,3,1.06363109225745,0.0151320942818486,-0.0290790531123793,0.155313781141596,0.0257474491612496,0.00818404695781325,-0.0694499547308776,-0.0626951913001902,-0.0149438968067466,-0.0672170171208838,-0.0809350871303445,-0.0256914985605436,0.434293649098178,-0.629098381501714,-0.021429080070396,-0.00947599719229713,0.00167851802117985
9.72,3,1.05570136621194,-0.0312051759392071,-0.011378317616301,0.157338175603504,-0.0033061718598997,-0.00293486332794173,-0.000559506007059949,-0.149795017344686,0.000356049277219967,0.0885291095716219,-0.375133518478957,0.0409914446445102,0.391979735709708,-0.663492741681163,-0.0076601458784753,-0.00283313496302174,0.00167851802117985
9.75,3,1.04631692454807,-0.0345571255633208,-0.00722780032756533,0.15612252164271,-0.0010732342499059,0.000879950356557919,0.226905117954039,-0.195776238288522,0.0130720948922188,0.0499689728486994,-0.106580807926674,0.121728161463261,0.364706361074658,-0.681386761070589,-0.00594602292957345,-0.000559506007059949,0.00152083905555386
9.78,3,1.04344818465733,-0.0133671071504868,-0.00689718314157537,0.155908892076378,0.000152592547379986,0.000152592547379986,-0.0384024577572965,-0.129652801090528,0.0198878953418582,0.0337432986439609,-0.159815261289305,0.0987070324818669,0.348389131341492,-0.694819991658274,-0.00887579983926918,-0.00122074037903989,0.00152592547379986
9.81,3,1.04378897467981,-0.00421155430768761,-0.011281675669627,0.156030966114282,0.000152592547379986,0.000152592547379986,-0.0383007293923765,-0.158157088941109,0.0295317443362733,0.00182602415031383,-0.369553717663096,0.098117007965331,0.283888261563972,-0.759646392203538,-0.0121972309539069,-0.00122074037903989,0.00156661681976786
9.84,3,1.03645944598732,-0.0231533758557899,-0.00964384899441511,0.156244595680614,0.000152592547379986,0.000152592547379986,-0.021251055431786,-0.163508000935901,0.0250963876257617,-0.0466017639698477,-0.54302601194291,0.0497044790999074,0.19953001495407,-0.836675110120955,-0.0076398002054913,-0.00134281441694388,0.00167851802117985
9.87,3,1.0252998443556,-0.0313730277413251,-0.00640888698995941,0.156448052410454,0.000152592547379986,0.000152592547379986,0.0283516953032014,-0.202937915178889,0.0174871059297464,-0.0950549841812392,-0.600980661437829,0.00769066438795129,0.150293486332794,-0.874762209946999,-0.00477106031474756,-0.00167851802117985,0.00167851802117985
9.9,3,1.00748720765811,-0.0503351949624114,-0.00188706116926583,0.156651509140294,0.000152592547379986,0.000152592547379986,0.0399894202500483,-0.192520930611082,0.0086977752006592,-0.131524603005056,-0.560324920397554,-0.0243232520523698,0.115797397788425,-0.891425316120894,0.000295012258267973,-0.00167851802117985,0.00167851802117985
9.93,3,0.990488397879981,-0.0507522812585833,0.00275683868933175,0.156865138706626,0.000152592547379986,0.000152592547379986,0.0314849289427371,-0.172093874935148,-0.000946073793755913,-0.143996500544247,-0.56729839981282,-0.0827356791894284,0.0827661976989044,-0.907488224941761,0.00279753003529974,-0.00167851802117985,0.00167851802117985
9.96,3,0.978138574378694,-0.0363984089683727,0.000478123315123956,0.15703807692699,0.000152592547379986,0.000152592547379986,0.0454420606097598,-0.13042593666392,-0.0132755516220588,-0.125573493657236,-0.569322794274728,-0.0515152439954833,0.0616066977955463,-0.91628772850734,0.000946073793755913,-0.00167851802117985,0.00167851802117985
9.99,3,0.963082776370535,-0.0459710481073438,0.00233975239315978,0.157261879329814,0.000152592547379986,0.000152592547379986,0.0738853114413892,-0.10808638772749,-0.0197047842850022,-0.0753603727327291,-0.559465315713981,-0.0246080914741457,0.0292774234239733,-0.93354085919777,0.00359101128167567,-0.0021668141727958,0.00167851802117985
10.02,3,0.941862239448225,-0.0674662516149378,0.00733461511073133,0.157790866827397,0.000152592547379986,0.000152592547379986,0.0937019969278034,-0.0949837743257953,-0.02198349965921,0.00143436994537187,-0.50414543087049,-0.0402335683258563,0.0131127862381868,-0.928495132297739,0.0100507624540951,-0.00228888821069979,0.00167851802117985
10.05,3,0.916969308552304,-0.0796736554053367,0.0136417737357707,0.158309681488489,0.000152592547379986,-0.000620543026011943,0.116611224707785,-0.101331624296803,-0.0208848333180741,0.0508133182775353,-0.393882056133712,-0.0172022665079704,0.0471409243039237,-0.86957406333608,0.0155746126692506,-0.00268562883388775,0.00167851802117985
10.08,3,0.891883093763034,-0.0813013092440565,0.0174667602567624,0.158930224514501,0.000152592547379986,-0.00287891272723574,0.121412803532009,-0.10564490696941,-0.0191757967874182,0.0857468387910601,-0.220669169184444,0.00491348002563555,0.0752484715313171,-0.816420992665385,0.0185959451073743,-0.00292977690969573,0.00167851802117985
10.11,3,0.870021668141728,-0.0705994852544735,0.0189926857305623,0.159398174993133,0.000152592547379986,-0.0032451348409477,0.123040457370729,-0.121717988626769,-0.0130720948922188,0.109886979786574,-0.053926206244087,0.0065411338643554,0.114932706686605,-0.754844813379315,0.0188706116926583,-0.00320444349497971,0.00167851802117985
10.14,3,0.851181574958546,-0.0611997843358664,0.0188095746737063,0.159794915616321,0.000152592547379986,-0.0032553076774397,0.0849940488906522,-0.185603401796523,0.0502029480880154,0.011240984323659,0.0903653065584277,-0.0128991566718548,0.138065736869411,-0.71289203568631,0.0188706116926583,-0.00332651753288369,0.00167851802117985
10.17,3,0.837946714682455,-0.0429293699962361,0.0177109083325704,0.160150964893541,0.000152592547379986,-0.0032553076774397,-0.0767947426781009,-0.315083264666687,0.0690837326171656,-0.0815658029928485,0.0346588539282408,-0.338663899655141,0.141483809930723,-0.696218756675924,0.0173752047283344,-0.00366222113711966,0.00167851802117985
10.2,3,0.841059602649007,0.00787377544480728,0.0114851323994669,0.158472446872361,-0.00135298725343588,-0.000478123315123956,0.0730307931760613,-0.185359253720715,-0.0524206264432712,0.00690735597806736,0.144505142368847,0.154454176458022,0.147455264951526,-0.693339843948688,0.00726340525528733,-0.00191249326049582,0.00167851802117985
10.23,3,0.848679057181514,0.021556240526546,0.00382498652099165,0.157902768028809,-0.00143436994537187,-0.00102745648569191,0.0032451348409477,-0.128432060711488,0.0559404278695029,0.0529597867773471,0.105858536535742,0.0425224565365561,0.155400250251778,-0.69304483169042,0.0021261228268278,-0.00180059205908383,0.00167851802117985
10.26,3,0.850927254046246,0.00369273964659566,0.00429293699962361,0.157689138462477,-0.00358083844518367,-0.00126143172500788,0.0307931760612812,-0.160415458642333,-0.00525935646636352,0.0507522812585833,0.114658040101321,0.0568763288267668,0.164983062227241,-0.685700043743197,0.00537125766777551,-0.0021769870092878,0.00167851802117985
10.29,3,0.85333821629485,0.000254320912299977,0.00583920814640746,0.159286273791721,0.00343841873429568,-0.00279753003529974,0.00466933194982757,-0.164199753817357,0.00304167811110772,0.0559099093600269,0.121880754010641,0.076194545325073,0.17220577613656,-0.680908637755465,0.00619525742362743,-0.0054322946867275,0.00167851802117985
10.32,3,0.859706411938841,0.0101321451460311,0.00532039348531551,0.159967853836685,0.00341807306131169,-0.000254320912299977,0.0267240414644815,-0.157404299040702,0.00580868963693147,0.0225023143203019,0.133030182805872,0.0353607796461888,0.173080640074872,-0.686401969461145,0.00400809757784763,-0.00361135695465967,0.00741599780266732
10.35,3,0.868638162378816,0.0196844386120182,0.000600197353027945,0.161229285561693,0.000295012258267973,-0.00460829493087558,0.0154118472853786,-0.169530320139164,-0.0022075055187638,0.00331634469639169,0.149347412539038,0.00256355479598376,0.181615649891659,-0.686808882920825,0.000946073793755913,-0.00420138147119561,0.0334075950397249
10.38,3,0.880458998382519,0.0302540157272052,-0.00065106153548794,0.162093976663513,0.000152592547379986,-0.00448622089297159,0.0245267087822097,-0.161432742291533,0.00145471561835587,-0.0249641407513657,0.165898617511521,0.000142419710887987,0.191096733502202,-0.689107943968017,-0.00165817234819585,-0.00464898627684357,0.0495518865525274
10.41,3,0.892788476210822,0.0338958911913409,-0.00376394950203965,0.163233334350617,0.000152592547379986,-0.00459812209438358,0.0262764366588336,-0.152114424064862,0.0121565396079389,-0.00167851802117985,0.167526271350241,-0.0276294239122695,0.201228878648233,-0.691335795159764,-0.00404878892381563,-0.00524918362987152,0.0593991922767825
10.44,3,0.903469954527421,0.0306609291868852,-0.00378429517502365,0.164545630258085,0.000152592547379986,-0.00477106031474756,0.0315256202887051,-0.163223161514125,0.00857570116275521,0.0243944619078138,0.172938220363984,0.0119327372051149,0.211259295429345,-0.691946165349284,-0.00421155430768761,-0.00589007232886746,0.0614642780846583
10.47,3,0.918373159988199,0.0442518387401959,-0.00578834396394747,0.167322814620401,0.00735496078371532,-0.00564592425305948,0.0291248308765933,-0.151259905799534,0.00515762810144353,0.0495824050620034,0.203873816136153,0.0401725313069043,0.222652872300384,-0.695465966775516,-0.00834172592343923,-0.00948108361054313,0.0675272886338898
10.5,3,0.934130883714306,0.0488601336710715,-0.00937935524562314,0.171269875179296,0.00884019491154719,-0.00817896053956725,0.0318918424024171,-0.165135654774621,0.00348928291675568,0.06569617806533,0.224697612435275,0.0468153935361797,0.235480819116794,-0.698446607867672,-0.010732342499059,-0.0123396506647949,0.0845973082674642
10.53,3,0.954924161503952,0.0665405234941659,-0.0137638477736747,0.179204687643055,0.0277616707866654,-0.0130314035462508,0.0405184077476323,-0.146621092359183,0.00466933194982757,0.0671203751742098,0.260923083183284,0.0529496139408551,0.250170395011241,-0.704550309762871,-0.0163782667521185,-0.021942808313242,0.105268512019206
