time,Mode,Knee_Angle,Knee_Velocity,Knee_Current,Ankle_Angle,Ankle_Velocity,Ankle_Current,Acc_X,Acc_Y,Acc_Z,Gyro_X,Gyro_Z,Gyro_Y,Shank_Angle,Thigh_Angle,Knee_Ref_Torque,Ankle_Ref_Torque,Filtered_Vertical_Load
0,1,0.0599739575385805,0.000152592547379986,-0.0360830510371207,0.00488296151615955,0.000152592547379986,-0.00422681356242561,-0.00287891272723574,-0.160110273547573,0.00157678965625985,0.00295012258267973,-0.00243639433983378,-0.000778221991637928,-0.0178940193894264,-0.0777764213995788,-0.0359202856532487,-0.00411999877925962,0.583951333150222
0.03,1,0.0600248217210405,0.000152592547379986,-0.0358490757978047,0.00488296151615955,0.000152592547379986,-0.00416577654347362,-0.00350962858973968,-0.159357483647165,0.00137333292641987,0.0021617277545498,-0.000528987497583951,-0.00147506129133986,-0.0182144637389243,-0.0781680756045208,-0.0358592486342967,-0.00411999877925962,0.583325703705964
0.06,1,0.0601214636677145,0.000152592547379986,-0.0360220140181687,0.00477614673299356,0.000152592547379986,-0.00404370250556963,-0.00289925840021973,-0.159764397106845,0.00127160456149988,0.00193283893347982,-0.0032451348409477,-0.00135807367168188,-0.0181585131382183,-0.0781273842585528,-0.0360830510371207,-0.00376903592028565,0.5839157282225
0.09,1,0.0601214636677145,0.000152592547379986,-0.0363017670216987,0.00461338134912158,0.000152592547379986,-0.00402335683258563,-0.00411999877925962,-0.159967853836685,0.00167851802117985,0.00292977690969573,-0.00235501164789778,-0.00152592547379986,-0.0185857722708823,-0.0786563717561368,-0.0364696188238166,-0.00366222113711966,0.584383678701132
0.12,1,0.0601214636677145,0.000152592547379986,-0.0364085818048646,0.00445061596524959,0.000152592547379986,-0.00403861608732363,-0.00371308531957966,-0.159967853836685,0.000966419466739911,0.00141911069063387,-0.00193283893347982,-0.000747703482161931,-0.0191757967874182,-0.0791650135807367,-0.0364696188238166,-0.00366222113711966,0.58088930936613
0.15,1,0.0600858587399925,0.000152592547379986,-0.0361796929837947,0.0043590604368216,0.000152592547379986,-0.00367239397361166,-0.0032247891679637,-0.159560940377005,0.00137333292641987,0.00253303628650777,-0.00178533280434584,-0.0010528885769219,-0.0194657226274402,-0.0794244209112827,-0.0360423596911527,-0.00358592486342967,0.58165227210303
0.18,1,0.0600655130670085,0.000152592547379986,-0.0359864090904467,0.00414034445224362,0.000152592547379986,-0.00360118411816767,-0.00318409782199571,-0.159967853836685,0.00123091321553189,0.00244148075807978,-0.00156661681976786,-0.00140385143589587,-0.0191757967874182,-0.0791344950712607,-0.0360016683451847,-0.00320444349497971,0.581321654917041
0.21,1,0.0601214636677145,0.000152592547379986,-0.0363170262764367,0.00396740623187963,0.000152592547379986,-0.00348419649850968,-0.00371308531957966,-0.160110273547573,0.0011088391776279,0.00194301176997182,-0.00266528316090375,-0.00196844386120182,-0.0194148584449802,-0.0794752850937427,-0.0364696188238166,-0.00320444349497971,0.582104963326925
0.24,1,0.0601418093406985,0.000152592547379986,-0.0363933225501267,0.00381990010274565,0.000152592547379986,-0.00347402366201768,-0.0033061718598997,-0.159947508163701,0.00123091321553189,0.00246182643106377,-0.00229397462894579,-0.00119530828780989,-0.0196640929390342,-0.0796634825688447,-0.0364696188238166,-0.00320444349497971,0.58282214829961
0.27,1,0.0601621550136825,0.000152592547379986,-0.0364289274778486,0.00381481368449965,0.000152592547379986,-0.00336212246060569,-0.0033061718598997,-0.159723705760877,0.00135298725343588,0.00126651814325388,-0.00303659169286172,0.000625629444257942,-0.0196437472660502,-0.0797397788425347,-0.0364696188238166,-0.00285348063600574,0.579185359253721
0.3,1,0.0602282784508805,0.000152592547379986,-0.0363729768771427,0.00381481368449965,0.000152592547379986,-0.00310271513005971,-0.0033061718598997,-0.159764397106845,0.00155644398327586,0.00202948088015381,-0.00190740684224982,0.000691752881455936,-0.0195725374106062,-0.0796838282418287,-0.0364696188238166,-0.00274666585283975,0.581687877030753
0.33,1,0.0602740562150944,0.000152592547379986,-0.0363933225501267,0.00381481368449965,0.000152592547379986,-0.00297555467390973,-0.00409965310627562,-0.159784742779829,0.00180059205908383,0.00155135756502986,-0.00158187607450585,-0.000691752881455936,-0.0199896237067782,-0.0801416058839686,-0.0364696188238166,-0.00274666585283975,0.582003234962004
0.36,1,0.0602537105421105,0.000152592547379986,-0.0364492731508326,0.00381481368449965,0.000152592547379986,-0.00278227078056174,-0.00385550503046765,-0.160354421623381,0.00141402427238787,0.00178533280434584,-0.00123091321553189,0.000595110934781945,-0.0203253273110141,-0.0804467909787286,-0.0364696188238166,-0.00274666585283975,0.578931038341421
0.39,1,0.0601723278501745,0.000152592547379986,-0.0363475447859127,0.00381481368449965,0.000152592547379986,-0.00271614734336375,-0.00411999877925962,-0.159764397106845,0.000966419466739911,0.00250251777703177,-0.00280770287179174,-0.00148523412783186,-0.0208644876450901,-0.0809757784763125,-0.0364696188238166,-0.00274666585283975,0.579353211055839
0.42,1,0.0601723278501745,0.000152592547379986,-0.0363882361318807,0.00381481368449965,0.000152592547379986,-0.00271614734336375,-0.00350962858973968,-0.160578224026205,0.00178024638609984,0.0032553076774397,-0.00247199926755577,-0.000264493748791976,-0.0210577715384381,-0.0811588895331685,-0.0364696188238166,-0.00274666585283975,0.582038839889726
0.45,1,0.0602638833786025,0.000152592547379986,-0.0363780632953887,0.00365204830062766,0.000152592547379986,-0.00291960407320373,-0.00391654204941964,-0.159764397106845,0.00137333292641987,0.00297046825566373,-0.00459812209438358,0.000661234371979939,-0.02142399365215,-0.0815454573198645,-0.0364696188238166,-0.00274666585283975,0.58434807377341
0.48,1,0.0602740562150944,0.000152592547379986,-0.0364797916603086,0.00342824589780368,0.000152592547379986,-0.00256355479598376,-0.00350962858973968,-0.160008545182653,0.00157678965625985,0.0032146163314717,-0.00525935646636352,-0.00145471561835587,-0.021393475142674,-0.0815149388103885,-0.0364696188238166,-0.00274666585283975,0.582689901425214
0.51,1,0.0602740562150944,0.000152592547379986,-0.0362966806034527,0.00319427065848771,0.000152592547379986,-0.00264493748791976,-0.00395723339538764,-0.159723705760877,0.0011291848506119,0.00410982594276762,-0.00452691223893958,-0.00204474013489181,-0.021586759036022,-0.0817082227037365,-0.0364696188238166,-0.00247199926755577,0.581326741335287
0.54,1,0.0602130191961425,0.000152592547379986,-0.0362763349304687,0.00297046825566373,0.000152592547379986,-0.00261441897844376,-0.0043641468550676,-0.159723705760877,0.000966419466739911,0.0043336283455916,-0.00289925840021973,-0.000579851680043947,-0.022207302062034,-0.0823185928932564,-0.0364696188238166,-0.00228888821069979,0.580767235328226
0.57,1,0.0602231920326345,0.000152592547379986,-0.0363882361318807,0.00273649301634775,0.000152592547379986,-0.00260424614195176,-0.00407930743329162,-0.159438866339101,0.00161748100222785,0.00531022064882351,-0.00398775190486363,-7.12098554439934e-05,-0.0226447340311899,-0.0827356791894284,-0.0364696188238166,-0.00208543148085981,0.583249407432274
0.6,1,0.0601825006866665,0.000152592547379986,-0.0364696188238166,0.00251269061352377,0.000152592547379986,-0.0021566413363038,-0.00456760358490758,-0.159764397106845,0.00100711081270791,0.00596128218431145,-0.00134281441694388,-0.000264493748791976,-0.0228990549434899,-0.0829696544287444,-0.0364696188238166,-0.00167851802117985,0.582191432437106
0.63,1,0.0601723278501745,0.000152592547379986,-0.0364289274778486,0.00244148075807978,0.000152592547379986,-0.00168869085767184,-0.00468967762281157,-0.160049236528621,0.00186162907803583,0.00669372641173538,0.000508641824599953,-0.00122074037903989,-0.0234992522965178,-0.0836207159642323,-0.0364696188238166,-0.00167851802117985,0.579424420911283
0.66,1,0.0601214636677145,0.000152592547379986,-0.0363373719494207,0.00244148075807978,0.000152592547379986,-0.00164799951170385,-0.00464898627684357,-0.159886471144749,0.00165817234819585,0.00630715862503942,2.03456729839981e-05,0.000966419466739911,-0.0235806349884538,-0.0836410616372163,-0.0364696188238166,-0.00167851802117985,0.577745902890103
0.69,1,0.0601214636677145,0.000152592547379986,-0.0363475447859127,0.00242113508509578,0.000152592547379986,-0.00159713532924385,-0.00444552954700359,-0.160008545182653,0.00125125888851588,0.00408948026978362,0.00264493748791976,0.000549333170567949,-0.0239773756116418,-0.0840072837509283,-0.0364696188238166,-0.00167851802117985,0.579556667785679
0.72,1,0.0601214636677145,0.000152592547379986,-0.0362966806034527,0.00228888821069979,0.000152592547379986,-0.00172938220363984,-0.00460829493087558,-0.159357483647165,0.000559506007059949,0.00472019613228757,0.00350962858973968,-0.000162765383871985,-0.0238858200832138,-0.0838750368765323,-0.0363068534399447,-0.00167851802117985,0.581265704316335
0.75,1,0.0601214636677145,0.000152592547379986,-0.0363780632953887,0.00228888821069979,0.000152592547379986,-0.00193283893347982,-0.00460829493087558,-0.159967853836685,0.00100711081270791,0.00298064109215573,0.00535091199479151,-5.08641824599953e-05,-0.0239977212846258,-0.0840683207698803,-0.0364696188238166,-0.00167851802117985,0.582486444695374
0.78,1,0.0601214636677145,0.000152592547379986,-0.0362966806034527,0.00228888821069979,0.000152592547379986,-0.00160730816573585,-0.00363170262764367,-0.160334075950397,0.00121056754254789,0.00307219662058372,0.00312306080304371,-0.00171920936714784,-0.0237434003723258,-0.0837733085116123,-0.0364696188238166,-0.00167851802117985,0.58495844396293
0.81,1,0.0601316365042065,0.000152592547379986,-0.0364085818048646,0.00228888821069979,0.000152592547379986,-0.00193283893347982,-0.00460829493087558,-0.160008545182653,0.0010478021586759,0.0032146163314717,0.00498468988107954,-0.00123091321553189,-0.0232551042207099,-0.0832646666870123,-0.0364696188238166,-0.00167851802117985,0.581611580757063
0.84,1,0.0602130191961425,0.000152592547379986,-0.0363882361318807,0.00228888821069979,0.000152592547379986,-0.00158696249275185,-0.0032247891679637,-0.160049236528621,0.00116987619657989,0.00245165359457177,0.00459812209438358,-0.000559506007059949,-0.0230007833084099,-0.0831222469761244,-0.0364696188238166,-0.00167851802117985,0.581560716574603
0.87,1,0.0602231920326345,0.000152592547379986,-0.0363678904588967,0.00228888821069979,0.000152592547379986,-0.00204474013489181,-0.00448622089297159,-0.159805088452813,0.00129195023448388,0.00141402427238787,0.00427259132663961,-0.000528987497583951,-0.0227464623961099,-0.0828475803908404,-0.0364696188238166,-0.00167851802117985,0.581113111768955
0.9,1,0.0601214636677145,0.000152592547379986,-0.0363780632953887,0.00228888821069979,0.000152592547379986,-0.00136316008992787,-0.0033061718598997,-0.159927162490717,0.000925728120771915,0.0021769870092878,0.00344859157078768,-0.000742617063915932,-0.02203436384167,-0.0821253089999085,-0.0364696188238166,-0.00167851802117985,0.580441704560483
0.93,1,0.0602028463596505,0.000152592547379986,-0.0363984089683727,0.00228888821069979,0.000152592547379986,-0.0021871598457798,-0.00403861608732363,-0.159805088452813,0.00157678965625985,0.00155644398327586,0.00446587521998759,-0.0010986663411359,-0.02172917874691,-0.0818506424146245,-0.0364696188238166,-0.00167851802117985,0.580553605761895
0.96,1,0.0602740562150944,0.000152592547379986,-0.0365001373332926,0.00228888821069979,0.000152592547379986,-0.00156661681976786,-0.00395723339538764,-0.160130619220557,0.00190232042400382,0.00277718436231574,0.00202439446190781,0.000722271390931934,-0.021739351583402,-0.0818709880876085,-0.0364696188238166,-0.00167851802117985,0.581408124027223
0.99,1,0.0602740562150944,0.000152592547379986,-0.0364492731508326,0.00239061657561978,0.000152592547379986,-0.00159713532924385,-0.00371308531957966,-0.160374767296365,0.000966419466739911,0.000284839421775974,0.00126143172500788,-0.00264493748791976,-0.021617277545498,-0.0817896053956725,-0.0364696188238166,-0.00167851802117985,0.58338165430667
1.02,1,0.0602740562150944,0.000152592547379986,-0.0363271991129287,0.00244148075807978,0.000152592547379986,-0.0021566413363038,-0.0043234555090996,-0.160781680756045,0.00116987619657989,0.000732444227423933,0.0022278511917478,-7.12098554439934e-05,-0.021719005910418,-0.0819828892890204,-0.0364696188238166,-0.00167851802117985,0.580879136529639
1.05,1,0.0602740562150944,0.000152592547379986,-0.0364391003143406,0.00244148075807978,0.000152592547379986,-0.00132246874395988,-0.00411999877925962,-0.160781680756045,0.00137333292641987,0.00279753003529974,0.000488296151615955,-0.000122074037903989,-0.021719005910418,-0.0819828892890204,-0.0364696188238166,-0.00167851802117985,0.583615629545986
1.08,1,0.0602740562150944,0.000152592547379986,-0.0364187546413567,0.00244148075807978,0.000152592547379986,-0.00185145624154383,-0.00383515935748365,-0.159764397106845,0.000844345428835922,0.00282804854477574,-0.00155644398327586,-0.000518814661091952,-0.02183090711183,-0.0820947904904325,-0.0364696188238166,-0.00167851802117985,0.583951333150222
1.11,1,0.0602740562150944,0.000152592547379986,-0.0363373719494207,0.00244148075807978,0.000152592547379986,-0.0021769870092878,-0.0043234555090996,-0.160212001912493,0.00129195023448388,0.00201422162541581,-0.00204474013489181,-0.00114953052359589,-0.02223782057151,-0.0824304940946684,-0.0364696188238166,-0.00167851802117985,0.583544419690542
1.14,1,0.0602740562150944,0.000152592547379986,-0.0364899644968006,0.00244148075807978,0.000152592547379986,-0.00138350576291187,-0.0043641468550676,-0.160456149988301,0.00076296273689993,0.00281787570828374,-0.0010681478316599,0.00120039470605589,-0.0226040426852219,-0.0828170618813644,-0.0364696188238166,-0.00167851802117985,0.583056123538926
1.17,1,0.0602740562150944,0.000152592547379986,-0.0363882361318807,0.00244148075807978,0.000152592547379986,-0.00207525864436781,-0.00375377666554765,-0.159438866339101,0.000966419466739911,0.000366222113711966,-0.00228888821069979,-0.000956246630247912,-0.0227566352326019,-0.0829187902462844,-0.0364696188238166,-0.00167851802117985,0.58333079012421
1.2,1,0.0602740562150944,0.000152592547379986,-0.0363475447859127,0.00244148075807978,0.000152592547379986,-0.00152592547379986,-0.00375377666554765,-0.160049236528621,0.000315357931251971,0.00164799951170385,-0.00043743196915596,-0.000244148075807978,-0.0224005859553819,-0.0825220496230964,-0.0364696188238166,-0.00167851802117985,0.585375530259102
1.23,1,0.0602740562150944,0.000152592547379986,-0.0363373719494207,0.00244148075807978,0.000152592547379986,-0.00205491297138381,-0.00395723339538764,-0.160496841334269,0.00076296273689993,0.00102745648569191,-0.00184128340505183,-0.000233975239315978,-0.0224107587918739,-0.0825729138055564,-0.0364696188238166,-0.00167851802117985,0.584734641560106
1.26,1,0.0603961302529984,0.000152592547379986,-0.0364696188238166,0.00244148075807978,0.000152592547379986,-0.00156661681976786,-0.00383515935748365,-0.159886471144749,0.00043743196915596,0.00146488845484787,-0.000559506007059949,-0.00011190120141199,-0.0225836970122379,-0.0828374075543484,-0.0364696188238166,-0.00167851802117985,0.581886247342347
1.29,1,0.0603859574165064,0.000152592547379986,-0.0362763349304687,0.00244148075807978,0.000152592547379986,-0.00146488845484787,-0.00395723339538764,-0.159723705760877,0.0011291848506119,0.00199387595243182,-0.00240078941211178,-0.0021362956633198,-0.0224005859553819,-0.0826644693339844,-0.0364696188238166,-0.00167851802117985,0.583168024740338
1.32,1,0.0602740562150944,0.000152592547379986,-0.0364340138960947,0.00244148075807978,0.000152592547379986,-0.0021464684998118,-0.00405896176030763,-0.159784742779829,0.00178024638609984,0.00195318460646382,-0.0021312092450738,-0.000991851557969909,-0.0227362895596179,-0.0829950865199744,-0.0364696188238166,-0.00167851802117985,0.58320362966806
1.35,1,0.0602740562150944,0.000152592547379986,-0.0364645324055706,0.00244148075807978,0.000152592547379986,-0.00194809818821782,-0.00426241849014761,-0.159479557685069,0.0010478021586759,0.00298572751040173,-0.00336720887885169,0.00127669097974588,-0.0229346598712119,-0.0831883704133223,-0.0364696188238166,-0.00167851802117985,0.581606494338817
1.38,1,0.0602740562150944,0.000152592547379986,-0.0363170262764367,0.00244148075807978,0.000152592547379986,-0.00188197475101983,-0.0043234555090996,-0.159967853836685,0.000559506007059949,0.00370291248308766,-0.0032247891679637,-0.000162765383871985,-0.0234992522965178,-0.0837427900021363,-0.0364696188238166,-0.00167851802117985,0.58246609902239
1.41,1,0.0602740562150944,0.000152592547379986,-0.0365103101697846,0.00244148075807978,0.000152592547379986,-0.00156661681976786,-0.00513728242845953,-0.159967853836685,0.00116987619657989,0.00368256681010366,-0.00148523412783186,0.00011190120141199,-0.0239061657561978,-0.0841395306253243,-0.0364696188238166,-0.00167851802117985,0.583147679067354
1.44,1,0.0603656117435224,0.000152592547379986,-0.0363170262764367,0.00244148075807978,0.000152592547379986,-0.00190232042400382,-0.00359101128167567,-0.159560940377005,0.0010884935046439,0.00361135695465967,-0.000925728120771915,-0.000549333170567949,-0.0240485854670858,-0.0843226416821802,-0.0364696188238166,-0.00167851802117985,0.582384716330454
1.47,1,0.0604266487624744,0.000152592547379986,-0.0363577176224047,0.00228888821069979,0.000152592547379986,-0.00173955504013184,-0.00391654204941964,-0.159723705760877,0.000844345428835922,0.00487278867966755,-0.00133264158045188,0.00167851802117985,-0.0237027090263578,-0.0839767652414523,-0.0364696188238166,-0.00167851802117985,0.582791629790134
1.5,1,0.0604266487624744,0.000152592547379986,-0.0364899644968006,0.0021973326822718,0.000152592547379986,-0.00149540696432386,-0.00464898627684357,-0.159967853836685,0.0010884935046439,0.00422172714417961,2.03456729839981e-05,-0.000518814661091952,-0.0237230546993418,-0.0839971109144363,-0.0364696188238166,-0.00152592547379986,0.58338165430667
1.53,1,0.0604266487624744,0.000152592547379986,-0.0361644337290567,0.00204474013489181,0.000152592547379986,-0.00153609831029186,-0.00473036896877956,-0.159479557685069,0.0010884935046439,0.00494399853511155,-0.00131229590746788,0.00209560431735181,-0.0242927335428938,-0.0845667897579882,-0.0364696188238166,-0.00122074037903989,0.583463036998606
1.56,1,0.0604266487624744,0.000152592547379986,-0.0365611743522446,0.00184128340505183,0.000152592547379986,-0.00125125888851588,-0.00428276416313161,-0.159886471144749,0.00043743196915596,0.00682597328613137,-0.0010579749951679,0.0021261228268278,-0.0246182643106377,-0.0848923205257322,-0.0364696188238166,-0.00122074037903989,0.58297474084699
1.59,1,0.0604266487624744,0.000152592547379986,-0.0363780632953887,0.00167851802117985,0.000152592547379986,0.000417086296171962,-0.00456760358490758,-0.160130619220557,0.000885036774803919,0.00446587521998759,-0.000508641824599953,0.000518814661091952,-0.0244961902727337,-0.0847702464878282,-0.0364696188238166,-0.0011291848506119,0.585151727856278
1.62,1,0.0604266487624744,0.000152592547379986,-0.0363271991129287,0.00151575263730786,0.000152592547379986,0.00065106153548794,-0.00481175166071556,-0.159927162490717,0.000925728120771915,0.00388602353994364,0.00145471561835587,0.00076296273689993,-0.0248013753674937,-0.0850856044190802,-0.0364696188238166,-0.00076296273689993,0.585192419202246
1.65,1,0.0604266487624744,0.000152592547379986,-0.0364492731508326,0.00137333292641987,0.000152592547379986,0.000671407208471938,-0.00489313435265155,-0.159683014414909,0.000478123315123956,0.00366222113711966,0.00155644398327586,0.00281787570828374,-0.0251574246447137,-0.0854925178787601,-0.0364696188238166,-0.00076296273689993,0.587766146834722
1.68,1,0.0604266487624744,0.000152592547379986,-0.0363780632953887,0.00128177739799188,0.000152592547379986,0.000620543026011943,-0.00444552954700359,-0.159560940377005,0.00076296273689993,0.00240078941211178,0.0021362956633198,-0.00065106153548794,-0.0250556962797937,-0.0854009623503321,-0.0364696188238166,-0.00076296273689993,0.58739992472101
1.71,1,0.0604266487624744,0.000152592547379986,-0.0363882361318807,0.00122074037903989,0.000152592547379986,0.000630715862503942,-0.00505589973652353,-0.159520249031037,-0.000172938220363984,0.000600197353027945,0.00409965310627562,-0.000345876440727968,-0.0250048320973337,-0.0853297524948882,-0.0364696188238166,-0.00076296273689993,0.587939085055086
1.74,1,0.0604266487624744,0.000152592547379986,-0.0364289274778486,0.00122074037903989,0.000152592547379986,0.000661234371979939,-0.00477106031474756,-0.159723705760877,7.12098554439934e-05,0.00129195023448388,0.0043234555090996,-0.000996937976215908,-0.0253913998840297,-0.0856756289356161,-0.0364696188238166,-0.00076296273689993,0.583595283873002
1.77,1,0.0604266487624744,0.000152592547379986,-0.0362458164209927,0.00122074037903989,0.000152592547379986,0.000640888698995941,-0.00383515935748365,-0.159642323068941,0.000233975239315978,0.00197353027944782,0.00507624540950753,-0.0021362956633198,-0.0247098198390657,-0.0850245674001282,-0.0364696188238166,-0.00076296273689993,0.583218888922798
1.8,1,0.0604266487624744,0.000152592547379986,-0.0365204830062766,0.00129195023448388,0.000152592547379986,0.000661234371979939,-0.00407930743329162,-0.159316792301197,0.000640888698995941,0.00191249326049582,0.00395723339538764,-0.00206508580787581,-0.0241299681590218,-0.0845464440850042,-0.0364696188238166,-0.00076296273689993,0.584836369925026
1.83,1,0.0604266487624744,0.000152592547379986,-0.0362763349304687,0.00137333292641987,0.000152592547379986,0.000640888698995941,-0.00363170262764367,-0.160212001912493,0.000478123315123956,0.00137333292641987,0.00525935646636352,-0.00173955504013184,-0.0236518448438978,-0.0840581479333883,-0.0364696188238166,-0.00076296273689993,0.58592486342967
1.86,1,0.0604266487624744,0.000152592547379986,-0.0365204830062766,0.00137333292641987,0.000152592547379986,0.000661234371979939,-0.00464898627684357,-0.160374767296365,0.000722271390931934,0.000956246630247912,0.00424207281716361,-0.000274666585283975,-0.0233263140761539,-0.0837326171656443,-0.0364696188238166,-0.00076296273689993,0.587226986500646
1.89,1,0.0604266487624744,0.000152592547379986,-0.0363780632953887,0.00137333292641987,0.000152592547379986,0.00065106153548794,-0.00411999877925962,-0.160008545182653,0.00076296273689993,0.00101728364919991,0.00472019613228757,-0.000885036774803919,-0.0232449313842179,-0.0836410616372163,-0.0364696188238166,-0.00076296273689993,0.58856980091759
1.92,1,0.0604571672719504,0.000152592547379986,-0.0362661620939767,0.00137333292641987,0.000152592547379986,0.000640888698995941,-0.00391654204941964,-0.160171310566525,0.000152592547379986,-0.000193283893347982,0.00522883795688752,-0.000488296151615955,-0.0228481907610299,-0.0832443210140283,-0.0364696188238166,-0.00076296273689993,0.58862066510005
1.95,1,0.0605792413098544,0.000152592547379986,-0.0364696188238166,0.00137333292641987,0.000152592547379986,0.000610370189519944,-0.00371308531957966,-0.159967853836685,0.000152592547379986,-0.00138350576291187,0.00600197353027945,0.000244148075807978,-0.022247993408002,-0.0827153335164444,-0.0364696188238166,-0.00076296273689993,0.593829157383953
1.98,1,0.0606809696747744,0.000152592547379986,-0.0363475447859127,0.00137333292641987,0.000152592547379986,0.000610370189519944,-0.00473036896877956,-0.159764397106845,0.000356049277219967,-0.00298064109215573,0.00502538122704754,0.00129195023448388,-0.02213609220659,-0.0827255063529364,-0.0364696188238166,-0.00076296273689993,0.594012268440809
2.01,1,0.0608640807316304,0.000152592547379986,-0.0365408286792606,0.00147506129133986,0.000152592547379986,0.000610370189519944,-0.00383515935748365,-0.159764397106845,0.000518814661091952,-0.00571713410850347,0.00500503555406354,-0.00125125888851588,-0.02213609220659,-0.0828780989003164,-0.0365001373332926,-0.00076296273689993,0.595995971556749
2.04,1,0.0610370189519944,0.000152592547379986,-0.0371511988687806,0.00152592547379986,0.000152592547379986,0.000640888698995941,-0.00375377666554765,-0.159886471144749,0.000559506007059949,-0.00677510910367138,0.00333669036937569,0.000528987497583951,-0.02188177129429,-0.0828374075543484,-0.0369273964659566,-0.00076296273689993,0.595578885260577
2.07,1,0.0637836848048341,0.00799584948271126,-0.0406099632760603,0.00164799951170385,0.000152592547379986,0.000640888698995941,-0.00371308531957966,-0.159113335571357,0.000600197353027945,-0.00835189875993123,0.00406913459679963,-0.0011190120141199,-0.02142399365215,-0.0851262957650482,-0.0420443332214321,-0.000915555284279916,0.598956266975921
2.1,1,0.0637836848048341,0.00100711081270791,-0.0399385560675883,0.00183111056855983,0.000152592547379986,0.00065106153548794,-0.00350962858973968,-0.159479557685069,0.0011291848506119,-0.00984730572425509,-0.00814844203009125,-0.00355031993570767,-0.0202439446190781,-0.0839564195684683,-0.0391654204941964,-0.00122074037903989,0.607287820062868
2.13,1,0.0643024994659261,0.00166834518468785,-0.0388297168899604,0.00183111056855983,0.000152592547379986,0.000671407208471938,-0.0043641468550676,-0.160415458642333,0.000885036774803919,-0.0114953052359589,-0.00122074037903989,0.00043743196915596,-0.021301919614246,-0.0854925178787601,-0.0385347046316925,-0.00122074037903989,0.616728212327443
2.16,1,0.0668050172429579,0.00773135573391929,-0.043417666147852,0.00192266609698782,0.000152592547379986,0.000661234371979939,-0.0032654805139317,-0.159357483647165,0.000396740623187963,-0.0134281441694388,0.00443535671051159,0.000396740623187963,-0.0209458703370261,-0.0876593320515559,-0.0440382091738639,-0.00122074037903989,0.63563951536607
2.19,1,0.0691244239631336,0.00802636799218726,-0.0450656656595559,0.00206508580787581,0.000152592547379986,0.00065106153548794,-0.00375377666554765,-0.159927162490717,0.000478123315123956,-0.0144149093091627,-0.00428276416313161,-0.00161748100222785,-0.0200303150527462,-0.0890835291604358,-0.0461745048371838,-0.00122074037903989,0.655802077293212
2.22,1,0.0698975595365256,0.00305185094759972,-0.043092135380108,0.0021769870092878,0.000152592547379986,0.000640888698995941,-0.00501520839055554,-0.159805088452813,0.000600197353027945,-0.0169886369416384,-0.00636819564399141,-0.000122074037903989,-0.0195928830835902,-0.0893988870916878,-0.0427869502853481,-0.00131229590746788,0.674184392834254
2.25,1,0.0719219539984334,0.00626646727907142,-0.0469679860835597,0.00238044373912778,0.000152592547379986,0.00065106153548794,-0.00334686320586769,-0.159601631722973,0.00145471561835587,-0.021759697256386,-0.000600197353027945,-0.000274666585283975,-0.0202744631285541,-0.0921048615985595,-0.0472121341593677,-0.00167851802117985,0.683695994954273
2.28,1,0.0745058544674011,0.00821456546728924,-0.0478275907671336,0.00244148075807978,0.000152592547379986,0.000661234371979939,-0.00493382569861955,-0.160578224026205,0.00076296273689993,-0.0255338195949176,-0.00657673879207739,0.00168869085767184,-0.0190079449853002,-0.0934425895972574,-0.0486007263405255,-0.00167851802117985,0.683314513585823
2.31,1,0.0748059531439151,0.00135298725343588,-0.0463525294757937,0.00244148075807978,0.000152592547379986,0.000666320790225939,-0.00381481368449965,-0.160679952391125,0.00208543148085981,-0.0313069043041271,-0.0190282906582842,-0.000147506129133986,-0.0183111056855983,-0.0930153304645935,-0.0460880357270018,-0.00167851802117985,0.680450860113325
2.34,1,0.0749992370372631,0.000157678965625985,-0.0454522334462518,0.00234483881140578,0.000152592547379986,0.000645975117241941,-0.00422172714417961,-0.160578224026205,0.00259407330545976,-0.0316680399995931,-0.0250506098615477,-0.00378429517502365,-0.0207475000254321,-0.0956602679525132,-0.0451673940244758,-0.00167851802117985,0.67828404594053
2.37,1,0.0751620024211351,0.000152592547379986,-0.0453250729901018,0.00199896237067782,0.000152592547379986,0.000681580044963937,-0.00446587521998759,-0.160354421623381,0.00314340647602771,-0.0306405835139012,-0.0300251269061352,-0.0087638986378572,-0.0231533758557899,-0.098228909166743,-0.0451673940244758,-0.00132755516220588,0.671371603544216
2.4,1,0.0752281258583331,0.000152592547379986,-0.0451012705872779,0.00141911069063387,0.000152592547379986,0.000640888698995941,-0.00489313435265155,-0.160517187007253,0.00381481368449965,-0.0257271034882656,-0.0340535701569669,-0.0126499221778008,-0.0251726838994517,-0.100304167811111,-0.0451673940244758,-0.000885036774803919,0.651331115654978
2.43,1,0.0751721752576271,0.000152592547379986,-0.0448774681844539,0.000528987497583951,0.000152592547379986,0.000661234371979939,-0.00552385021515549,-0.160313730277413,0.00462864060385957,-0.0211798455763421,-0.0356354462314727,-0.0144810327463607,-0.0279295225887834,-0.102994883063245,-0.0451673940244758,-0.00010681478316599,0.601102735475733
2.46,1,0.0737683238217312,-0.00409965310627562,-0.0450961841690318,-0.00115461694184189,-0.00645466475417341,0.00144962920010987,-0.00442518387401959,-0.162368643248797,0.0054221218502355,-0.0142165389975687,-0.0449181595304219,-0.0190893276772362,-0.0298114973398033,-0.10345774712363,-0.043290505691702,0.00459303567613758,0.515381328775903
2.49,1,0.0720643737093214,-0.00412508519750562,-0.0393180130415764,-0.00205999938962981,0.00243639433983378,0.00444044312875759,-0.00857570116275521,-0.162836593727429,0.00462864060385957,-0.000417086296171962,-0.0410219631539862,-0.0276802880947295,-0.032537817519659,-0.10450046286406,-0.0406557410402743,-0.000239061657561978,0.407829014964243
2.52,1,0.0692108930733156,-0.00815352844833725,-0.0405896176030763,-0.00373343099256366,-0.00334686320586769,0.00395214697714164,-0.00521866512039552,-0.159784742779829,0.00536108483128351,0.0121311075167089,-0.0513321329386273,-0.0386262601601204,-0.0359304584897407,-0.105039623198136,-0.0388398897264524,0.00778221991637928,0.280439669993184
2.55,1,0.0642058575192521,-0.0149235511337626,-0.032878607542141,-0.00400809757784763,0.000152592547379986,0.00520849228390352,-0.00495417137160354,-0.164098025452437,0.000966419466739911,0.0196488336842962,-0.0724916328419853,-0.0953398236030152,-0.0386720379243344,-0.102806685588143,-0.0310525833918271,0.00364696188238166,0.163360494806767
2.58,1,0.0605182042909024,-0.0101626636555071,-0.0312916450493891,-0.00421664072593361,0.000152592547379986,0.00457777642139958,-0.0145776746930347,-0.166824345632293,-0.011322367015595,-0.0166071555731885,-0.065284178187404,-0.0845769625944802,-0.0422630492060101,-0.102704957223223,-0.0316782128360851,0.00396740623187963,0.0705079297260455
2.61,1,0.0550096133304849,-0.0159662668741925,-0.0275938189845475,-0.00427259132663961,0.000152592547379986,0.00386567786695964,-0.010813725190995,-0.164667704295989,0.00501520839055554,-0.0180160934273303,-0.0580360321868547,-0.0850957772555722,-0.0468509984639017,-0.101789401938943,-0.0251625110629597,0.00396740623187963,0.02183090711183
2.64,1,0.0528021078117211,-0.00517797377442752,-0.0276141646575315,-0.00427259132663961,0.000152592547379986,0.00373343099256366,-0.0254829554124577,-0.162470371613717,0.00021362956633198,-0.00691244239631336,-0.0255389060131637,-0.0399589017405723,-0.0561794895270648,-0.108895128228604,-0.0292367320780053,0.00396740623187963,0.00814335561184525
2.67,1,0.0503148492894274,-0.00643940549943541,-0.0266986093732515,-0.00418612221645762,0.000152592547379986,0.00445570238349559,-0.0567542547888628,-0.160069582201605,-0.0010884935046439,-0.0130161442915128,-0.0608640807316304,0.0720287687815994,-0.0735089164911852,-0.123742383088677,-0.0261594490391756,0.00396740623187963,0.00309762871181372
2.7,1,0.0499638864304534,-0.000228888821069979,-0.0288603371278013,-0.00394706055889564,0.000152592547379986,0.00358083844518367,-0.0691040782901497,-0.156773583178198,0.00206508580787581,-0.0203812779117201,-0.10948515274514,0.125629444257942,-0.0796940010783207,-0.129566331980346,-0.0297860652485733,0.00367748039185766,0.00191249326049582
2.73,1,0.0481785536261076,-0.00477614673299356,-0.0293079419334493,-0.00373851741080966,0.000152592547379986,0.00338246813358969,-0.0837326171656443,-0.151829584643086,0.00886054058453118,-0.00197861669769382,-0.206269519130019,0.0930763674835454,-0.105014191106906,-0.153141880550554,-0.0273394980722475,0.00350962858973968,0.00167851802117985
2.76,1,0.0462253690196438,-0.00359609769992167,-0.0245674001281777,-0.00350962858973968,0.000152592547379986,0.00343333231604968,-0.0754722739341411,-0.154332102420118,0.00788394828129927,-0.00043234555090996,-0.254249702444533,0.0473545538702556,-0.120995717235837,-0.167129530727053,-0.0253507085380617,0.00340281380657369,0.00167851802117985
2.79,1,0.043097221798354,-0.00789920753603727,-0.0234076967680898,-0.0032807397686697,0.000152592547379986,0.00279244361705374,-0.0708334604937895,-0.155939410585854,0.00786360260831528,0.000712098554439934,-0.289890235094251,0.00855535548977121,-0.137297687714265,-0.180303353984191,-0.02190720338552,0.00305185094759972,0.00167851802117985
2.82,1,0.0426190984832301,-0.000625629444257942,-0.0235806349884538,-0.00305185094759972,0.000152592547379986,0.00298064109215573,-0.0692464980010376,-0.156061484623758,0.00896226894945118,-0.000244148075807978,-0.326817631560208,-0.0261645354574216,-0.155852941475672,-0.19841100293995,-0.0249132765689057,0.00305185094759972,0.00167851802117985
2.85,1,0.0411898149561042,-0.00335703604235969,-0.0252184616636657,-0.00289925840021973,0.000152592547379986,0.00267545599739575,-0.0677816095461898,-0.154983163955606,0.00890123193049918,-0.00168869085767184,-0.380326751508123,-0.0677205725272378,-0.17780083620716,-0.218878749961852,-0.0238196966460158,0.00263985106967376,0.00167851802117985
2.88,1,0.0391806797489344,-0.00480157882422356,-0.0199743644520402,-0.00289925840021973,0.000152592547379986,0.00230414746543779,-0.0567135634428948,-0.156916002889086,0.00839259010589923,-0.0021820734275338,-0.396242154199856,-0.0992309335612049,-0.212800480157882,-0.251884517960143,-0.0201879940183721,0.00259407330545976,0.00167851802117985
2.91,1,0.0387788527075004,-7.12098554439934e-05,-0.0224819686473179,-0.00277209794406974,0.000152592547379986,0.00286365347249774,-0.0557980081586149,-0.157526373078606,0.00523901079337952,-0.00733461511073133,-0.406211533962015,-0.102181056143885,-0.244061606697796,-0.282743817458622,-0.0230567339091159,0.00259407330545976,0.00167851802117985
2.94,1,0.0359914955086927,-0.00738039287494532,-0.0204830062766401,-0.00274666585283975,0.000152592547379986,0.00247199926755577,-0.0482701091545356,-0.155491805780206,0.00289925840021973,-0.00805688650166326,-0.426328318124943,-0.0859299498479161,-0.272820215460677,-0.308730328277434,-0.0181483403017263,0.00259407330545976,0.00167851802117985
2.97,1,0.0339772738832769,-0.00599688711203345,-0.0186569821263263,-0.00274157943459375,0.000152592547379986,0.00249743135878577,-0.0407422101504562,-0.154962818282622,0.000172938220363984,-0.00839767652414523,-0.411547186702068,-0.0576443779819127,-0.291594185206661,-0.325500249234494,-0.0177312540055544,0.00259407330545976,0.00167851802117985
3,1,0.032293669443851,-0.00355031993570767,-0.0156916002889086,-0.00259407330545976,0.000152592547379986,0.00251777703176977,-0.0354319895016327,-0.153518275500758,-0.00348928291675568,-0.0065309610278634,-0.392768130537838,-0.0168055258847825,-0.302667317728202,-0.334884690898363,-0.0166275012461725,0.00259407330545976,0.00167851802117985
3.03,1,0.0308643859167252,-0.00350962858973968,-0.0180771304462823,-0.00259407330545976,0.000152592547379986,0.00266019674265776,-0.032380138554033,-0.15144301685639,-0.00440483820103559,0.000885036774803919,-0.381664479506821,0.0333974222032329,-0.30815047659739,-0.338948739076917,-0.0174108096560564,0.00259407330545976,0.00167851802117985
3.06,1,0.0266223130995615,-0.0118971322773929,-0.0130263171280048,-0.00259407330545976,0.000152592547379986,0.00234483881140578,-0.0247912025310017,-0.147048351491846,-0.00456760358490758,0.0124668111209449,-0.377595344910021,0.0711742505162715,-0.309371216976429,-0.335917233802301,-0.0100100711081271,0.00259407330545976,0.00167851802117985
3.09,1,0.0209814752647481,-0.0166020691549425,-0.00730409660125533,-0.00259407330545976,0.000152592547379986,0.00284330779951374,-0.0178126366974904,-0.146499018321279,-0.00165817234819585,0.0188146610919523,-0.363383892330699,0.0989816990671509,-0.303791416160568,-0.324711854406364,-0.00443027029226559,0.00259407330545976,0.00167851802117985
3.12,1,0.0149133782972706,-0.0170547603788364,-0.000910468866033916,-0.00259407330545976,0.000152592547379986,0.00232449313842179,-0.0142521439252907,-0.139215267393007,-0.00241096224860378,0.0237230546993418,-0.381745862198757,0.135853144932401,-0.295368307545193,-0.310220648823511,-0.000152592547379986,0.00259407330545976,0.00167851802117985
3.15,1,0.010442416659037,-0.00604266487624744,-0.00224311044648579,-0.00255846837773776,0.000152592547379986,0.00254320912299977,0.0350657673879208,-0.151727856278166,-0.00314340647602771,0.0236162399161758,-0.232907091484319,0.184535253964863,-0.26517532883694,-0.275521103549303,-0.00333160395112969,0.00259407330545976,0.00167851802117985
3.18,1,0.00495925778984954,-0.00570696127201147,-5.59506007059949e-05,-0.00235501164789778,0.000152592547379986,0.00241604866684978,0.033010854416537,-0.152724794254382,-0.00666320790225939,0.0206610309152501,-0.0382803837193925,0.267143772698141,-0.208253222245959,-0.213110751670888,0.000635802280749942,0.0021668141727958,0.00167851802117985
3.21,1,0.00168360443942585,-0.000142419710887987,0.000152592547379986,-0.0021210364085818,0.000152592547379986,0.00197353027944782,0.0349233476770328,-0.158869187495549,-0.00835189875993123,0.0347758415478988,0.151890621662038,0.315190079449853,-0.146570228176723,-0.148177536342458,-0.000473036896877956,0.00198370311593982,0.00167851802117985
3.24,1,-0.000956246630247912,0.000152592547379986,0.000152592547379986,-0.00195318460646382,0.000152592547379986,0.00183619698680583,0.0284330779951374,-0.154677978860846,-0.00371308531957966,0.0535803298033591,0.28743858149968,0.276889350057477,-0.0915250099185156,-0.0903449608854437,0.000488296151615955,0.00198370311593982,0.00167851802117985
3.27,1,-0.00364187546413566,-0.000620543026011943,0.000152592547379986,-0.00183111056855983,0.000152592547379986,0.00175990071311584,-0.100558488723411,-0.172582171086764,0.0827560248624124,-0.0639159316792301,0.255846837773776,0.11210465814183,-0.0489516891994995,-0.0451063570055239,0.00179041922259184,0.00161748100222785,0.00167851802117985
3.3,1,-0.0133671071504868,-0.0257271034882656,0.00853500981678721,-0.00276701152582375,-0.0032959990234077,0.00181076489557583,-0.182348094119083,-0.163426618243965,0.0379955442976165,0.0207220679342021,0.102745648569191,-0.0490941089103875,-0.0398266548661763,-0.0262255724763736,0.0180669576097903,0.00265511032441176,0.010966317738375
3.33,1,-0.0178736737164424,-0.00921658986175115,0.0240892768130538,-0.0115054780724509,-0.0319427065848771,0.011332539852087,-0.0335398419141209,-0.180557674896491,-0.0053814305042675,-0.0331329284544409,0.228756574195583,0.219509465824356,-0.0294808801538133,-0.0114139225440229,0.0196640929390342,0.0309152500991852,0.0735699535101372
3.36,1,-0.0169581184321624,0.00488296151615955,0.00536108483128351,-0.0203761914934741,-0.0192775251523382,0.0307016205328532,-0.0521357870214952,-0.144016846217231,0.0119937742240669,-0.0241503138320058,0.300057985168004,0.290108951078829,-0.0146387117119867,0.00246182643106377,0.00602231920326345,0.0356964832504247,0.125990579953408
3.39,1,-0.0165206864630065,0.00348928291675568,0.0102033550014751,-0.0223802402823979,-0.000132246874395988,0.0270495722322255,-0.0488804793440555,-0.166234321115757,-0.0159611804559465,-0.00198370311593982,0.238074892422254,0.224351735994547,-0.00961333048493912,0.00696839299701936,0.00942004659159113,0.0211086357208981,0.187688833277383
3.42,1,-0.0166325876644185,0.00121056754254789,0.00828068890448724,-0.0286161890519934,-0.0223192032634459,0.0290841395306253,-0.0683716340627257,-0.14930672119307,-0.0136824650817387,0.0155440941597746,0.220526749473556,0.0443433942686239,-0.0153609831029186,0.00140385143589587,0.00924710837122715,0.0395825067903684,0.256345306761884
3.45,1,-0.0174769330932544,0.000152592547379986,0.00984730572425509,-0.0354930265205847,-0.0164291309345785,0.0440687276833399,-0.0463576158940397,-0.157933286538285,-0.00310271513005971,0.0133060701315348,0.270068463189591,0.00743634347565132,-0.0391145563117364,-0.021444339325134,0.010589922788171,0.0458286283964558,0.312458672851751
3.48,1,-0.0181890316476943,0.000152592547379986,0.010813725190995,-0.0375784580014445,-0.000274666585283975,0.0396944079917803,-0.0470086774295277,-0.15683462019715,-0.000823999755851924,0.00635802280749942,0.310780154830571,0.0457370728680278,-0.0367341125726086,-0.0183517970315663,0.011017181920835,0.0353912981556647,0.381461022776981
3.51,1,-0.0185755994343903,0.000152592547379986,0.011261329996643,-0.0416984567807042,-0.0133060701315348,0.0407422101504562,-0.0447706534012879,-0.153904843287454,-0.00627664011556342,0.00355031993570767,0.319772942289499,0.0275480412203335,-0.0509557379884233,-0.032125817641733,0.011291848506119,0.0461134678182318,0.446567176325775
3.54,1,-0.0176498713136184,0.00404878892381563,0.011068046103295,-0.0440789005198319,-0.00204474013489181,0.0457675913775038,-0.0388297168899604,-0.161392050945565,-0.00464898627684357,-0.0145268105105747,0.3471073539435,0.0240791039765618,-0.0497655161188594,-0.0319020152389091,0.00967436750389111,0.043977172154912,0.518224636575416
3.57,1,-0.0159408347829625,0.00498468988107954,0.00659199804681539,-0.0448418632567319,0.000152592547379986,0.0419426048565121,-0.0392366303496404,-0.156102175969726,-0.00298064109215573,-0.0135196996978668,0.367809076204718,0.0196640929390342,-0.0397656178472243,-0.0235908078249458,0.00669372641173538,0.0413729260129602,0.587410097557502
3.6,1,-0.0120141198970509,0.010589922788171,0.00583920814640746,-0.0478530228583636,-0.00767031871496729,0.0476292204555396,-0.0361440880560727,-0.158502965381837,-0.00298064109215573,-0.011291848506119,0.410952075767286,0.0155440941597746,-0.0298572751040173,-0.0176396984771264,0.0032349620044557,0.0495722322255114,0.643492945137893
3.63,1,-0.00779239275287128,0.00719219539984334,0.000498468988107954,-0.0481988992990916,0.000142419710887987,0.0454013692637918,-0.0342722861415449,-0.154718670206814,-0.000823999755851924,0.00267545599739575,0.449018829920347,0.010620441297647,-0.0116580706198309,-0.00364187546413566,0.000956246630247912,0.0445570238349559,0.693665374716432
3.66,1,0.00158696249275185,0.0193894263537502,-0.00258390046896776,-0.0480056154057436,0.00362152979115167,0.0445265053254799,-0.00558488723410749,-0.165176346120589,-0.00306202378409172,0.00897244178594317,0.408805607267474,0.0154525386313466,0.00534073915829951,0.00385550503046765,-0.00797550380972727,0.0442721844131799,0.752922147282327
3.69,1,0.011047700430311,0.0186366364533423,-0.0140588600319427,-0.0446892707093519,0.0148726869513026,0.0366222113711966,0.000885036774803919,-0.168187505722221,-0.00440483820103559,0.021749524419894,0.384136478774377,-0.00602231920326345,0.0289010284737693,0.0179347107353944,-0.0155339213232826,0.032085126295765,0.864660583310444
3.72,1,0.0177719453515224,0.0121870581174149,-0.0152897732474746,-0.0333262123477889,0.0447401348918119,0.0181178217922503,-0.00639871415346741,-0.165908790348013,-0.00184128340505183,0.0263171280048016,0.381471195613473,0.00582903530991546,0.0510269478438673,0.0333363851842809,-0.0161544643492945,0.00267545599739575,0.986490473138625
3.75,1,0.0288908556372773,0.0278125349691254,-0.022207302062034,-0.021464684998118,0.0275582140568255,-0.00123091321553189,-0.0252794986826177,-0.167780592262541,-0.00896226894945118,0.00743634347565132,0.411135186824142,0.00767031871496729,0.0744651631214332,0.0456658630125838,-0.0282804854477574,-0.00136316008992787,1.03802606280709
3.78,1,0.0423495183161921,0.0366425570441806,-0.0410168767357402,-0.00921658986175115,0.0407116916409802,-0.00257372763247576,0.00743634347565132,-0.157282225002798,-0.00481175166071556,-0.0130008850367748,0.397930845057527,0.0021261228268278,0.0992156743064669,0.0569678843551948,-0.04376354258858,-0.0149744153162226,1.04317351807204
3.81,1,0.0473342081972716,0.010355947548855,-0.0383515935748365,0.0103152562028871,0.0571815139215267,-0.0210984628844061,0.00239061657561978,-0.158340199997965,-0.00452691223893958,-0.0132958972950428,0.313506475010427,-0.00351980142623168,0.117811619413841,0.0705486210720135,-0.0352692241177608,-0.0488601336710715,1.0209763888465
3.84,1,0.0492975656402275,0.000600197353027945,-0.0308033488977732,0.02178004292937,0.0179143650624104,-0.0384431491032645,-0.0138859218115787,-0.162409334594765,-0.00574765261797947,-0.0285958433790094,0.292733542893765,-0.00988799707022309,0.111209448530534,0.0620237840917183,-0.0298471022675253,-0.0365204830062766,1.00577817112746
3.87,1,0.0532446261991231,0.00803654082867926,-0.0332855210018209,0.0306914476963612,0.0306405835139012,-0.0371511988687806,0.0223293760999379,-0.156509089429406,-0.00310271513005971,-0.0310678426465651,0.330250963876258,-0.0115054780724509,0.118635619169693,0.065452029989522,-0.0354828536840927,-0.0419527776930041,1.00551367737866
3.9,1,0.054292428357799,0.00100711081270791,-0.0340790022481969,0.0507827997680593,0.0570085757011628,-0.0841191849523403,-0.00790429395428327,-0.162531408632669,-0.00603249203975545,-0.0414746543778802,0.356354462314727,-0.0146183660390027,0.136956897691783,0.0827661976989044,-0.0331939654733929,-0.0885647144993438,1.00583920814641
3.93,1,0.0603656117435224,0.0162561927142145,-0.0385347046316925,0.064943388164922,0.043570258695232,-0.0847397279783522,0.0188299203466903,-0.159113335571357,-0.00383515935748365,-0.0474257637256996,0.390250353506068,-0.00479140598773156,0.157048249763482,0.0967538478754031,-0.0421765800958281,-0.0863572089805801,1.01778211818801
3.96,1,0.0664489679657379,0.0172429578539384,-0.0494908495335754,0.0820947904904325,0.0480666524246956,-0.108167770419426,0.0197658213039542,-0.158218125960061,-0.00184128340505183,-0.0594704021322265,0.375876135542873,-0.00426241849014761,0.180405082349111,0.114006978565834,-0.0496637877539394,-0.108422091331726,1.0219936724957
3.99,1,0.0685140537736137,0.00389619637643564,-0.0441399375387839,0.098361156041139,0.0445366781619719,-0.121260210984629,0.0180567847732983,-0.161432742291533,-0.00371308531957966,-0.0602537105421105,0.352112389497564,-0.00101728364919991,0.194718263293354,0.126295765048168,-0.0428886786502681,-0.122338531652781,1.0143640451267
4.02,2,0.0713421023183894,0.00699891150649536,-0.0458693197424238,0.113813694672486,0.0444959868160039,-0.131605985696992,0.0211086357208981,-0.163426618243965,-0.000620543026011943,-0.0679952391125218,0.374594358144882,-0.00828068890448724,0.210079246396273,0.138838872442803,-0.0470595416119877,-0.136285490483311,1.00704977568896
4.05,2,0.0717388429415774,0.000579851680043947,-0.043895789462976,0.12579729606006,0.0340586565752129,-0.133650725831884,0.0318918424024171,-0.160740989410077,-0.00159713532924385,-0.0814640746279285,0.400067140720847,-0.0242316965239418,0.232225511439355,0.160578224026205,-0.043641468550676,-0.126621295815912,1.00160730816574
4.08,2,0.0721254107282734,0.000152592547379986,-0.0421765800958281,0.148360647399314,0.0799381491541286,-0.138320057781711,0.0259102145451216,-0.150771609647918,-0.00859604683573921,-0.119886878058209,0.45727917315185,-0.0173345133823664,0.252571184423353,0.180557674896491,-0.0414441358684042,-0.143264056316823,0.989989928891873
4.11,2,0.0743430890835292,0.00620543026011943,-0.0390636921292764,0.166254666788741,0.0380769269895525,-0.162765383871985,0.00841293577888323,-0.194026510411898,-0.00127160456149988,-0.138930427971231,0.486475213883887,0.00411999877925962,0.265541550950652,0.191269671722566,-0.0371511988687806,-0.172134566281116,0.964303516749575
4.14,2,0.0813013092440565,0.02193263547675,-0.0347707551296528,0.169133579515976,0.000549333170567949,-0.184809920550147,0.0274564856919055,-0.192602313303018,0.00845362712485122,-0.170862961719616,0.536678161971903,-0.02142399365215,0.295866776533301,0.214626504308196,-0.0308338674072492,-0.186590166936247,0.936887722403638
4.17,2,0.097740613015127,0.054394156722719,-0.0271869055248675,0.169301431318094,-0.00767540513321329,-0.193599251279234,0.0170801924700664,-0.21642709636728,0.0138045391196427,-0.178965625985494,0.621031322163559,-0.125583666493728,0.330296741640472,0.232662943408511,-0.0248573259681997,-0.19836013875749,0.827967162083804
4.2,2,0.130252998443556,0.110049745170446,-0.0190944140954822,0.153162226223538,-0.0826339508245084,-0.185252438937549,0.00554419588813949,-0.247861161127557,0.0186671549628183,-0.148375906654052,0.698777225053662,-0.116463718578651,0.369024730165512,0.238837855159154,-0.00743125705740532,-0.196651102226834,0.657714570553708
4.23,2,0.189062166203803,0.200023397523932,0.0010630614134139,0.107791375469222,-0.175425478886278,-0.16933194982757,-0.0127669097974588,-0.260373750012716,0.0201930804366181,-0.0876186407055879,0.845052440972116,-0.127994628742332,0.415224667093926,0.226248970000305,0.0202032532731101,-0.177531256040122,0.53885514898119
4.26,2,0.278603473006378,0.30609047720776,0.0136672058270007,0.0395723339538764,-0.251976073488571,-0.134937589648122,-0.0367341125726086,-0.287230038351594,0.00676493626717938,-0.087064221116774,1.05204423149307,-0.154337188838364,0.472167119357891,0.193609424115726,0.0244402396720278,-0.134357737968078,0.420692566708375
4.29,2,0.397172968738873,0.407910397656178,0.00768557796970529,-0.043885616626484,-0.292199468977935,-0.0781121250038148,-0.0400911486149683,-0.258522293771172,0.00643940549943541,0.0389263588366344,1.18141727958007,-0.151259905799534,0.540162358470412,0.143040253913999,0.0075685903500473,-0.0700399792474136,0.245094149601733
4.32,2,0.529460534480829,0.454156112348806,-0.00680054119490137,-0.132114627521592,-0.297397788425347,-0.032273323770867,-0.0509760836614073,-0.221554205959248,-0.00605283771273944,-0.0415255185603402,1.06387524033326,-0.131148208054852,0.609627572456028,0.0802738527583646,-0.00806705933815526,-0.011256243578397,0.0697703990803756
4.35,2,0.654154077781508,0.435239722891934,-0.0199540187790562,-0.223883785515915,-0.307484155807164,0.00283313496302174,-0.0524816634622232,-0.159927162490717,-0.0240587583035778,-0.00595619576606545,0.683314513585823,-0.164815210425123,0.661819310078229,0.00783308409883928,-0.0263934242784916,0.128727072969756,0.0156865138706626
4.38,2,0.753919085258543,0.329706717123936,-0.0310017192093671,-0.260872219000824,-0.0126651814325388,0.132923368022706,-0.0153711559394106,-0.101168858912931,-0.0278430534786014,-0.0719321268349254,0.204321420941801,-0.0683360291350037,0.688670511998861,-0.064994252347382,-0.0331329284544409,0.167251604764957,0.0043946653645436
4.41,2,0.819681386761071,0.196996978667562,-0.0250251777703177,-0.169576097903378,0.364955595568712,0.0558641315958129,-0.064953561001414,-0.042980234178696,-0.00951160212001912,-0.0668660542619098,-0.424390392773217,-0.127903073213904,0.681178217922503,-0.138269193599251,-0.0253507085380617,0.0565609708955148,0.00205491297138381
4.44,2,0.840311899166845,0.0806553341268146,-0.0338450270088809,-0.0501775159967854,0.4163385926898,-0.00707012136193935,-0.0530513423057751,-0.0284330779951374,-0.00859604683573921,0.0509964293343913,-0.982355215104628,0.0429395428327281,0.637587613554287,-0.202480137536749,-0.0583208716086306,-0.0344401379436628,0.00170395011240984
4.47,2,0.797367269915871,-0.138381094800663,-0.115914385408083,0.0303353984191412,0.224453464359467,-0.0558539587593209,-0.2150028992584,0.043285419273456,-0.0170395011240984,0.00958789839370912,-1.82330800297047,0.0279753003529974,0.555960773542487,-0.24118269397056,-0.123742383088677,-0.0784885199540188,0.00167851802117985
4.5,2,0.678380687887204,-0.396526993621632,-0.0581784518977426,0.0426750490839361,0.00672424492121138,-0.032105471968749,-0.143650624103519,-0.104505549282306,-0.0043234555090996,0.107740511286762,-2.77471744946643,-0.123747469506923,0.411577705211544,-0.266523229672129,-0.0595568712424085,-0.0229956968901639,0.00167851802117985
4.53,2,0.524226610105696,-0.518611204362112,-0.0163528346608885,0.0271614734336375,-0.0533870459100111,-0.00144962920010987,-0.0369579149754326,-0.276426485997091,0.00576799829096347,-0.0276446831670075,-3.19928586687826,0.0462253690196438,0.231406598101749,-0.292596209601123,-0.011174860886461,0.00390636921292764,0.00167851802117985
4.56,2,0.358892585019481,-0.551606799523911,0.0236213263344218,0.0188451796014283,-0.0134942676066368,0.00178533280434584,0.13418988616596,-0.45127719962157,-0.00523901079337952,-0.011103651031017,-2.90712200282805,0.114566484572893,0.0440687276833399,-0.314610227769809,0.0233415733308919,-0.00142419710887987,0.00167851802117985
4.59,2,0.203355001475061,-0.515996785383669,0.0423546047344381,0.0182500686666463,0.000137333292641987,-0.00336720887885169,0.126336456394136,-0.401491337829727,-0.0054017761772515,-0.0199082410148422,-2.43840347504095,0.365062410351878,-0.116245002594073,-0.319533880631937,0.0473138625242876,-0.00610370189519944,0.00167851802117985
4.62,2,0.0841242713705863,-0.402381461022777,0.0468662577186397,0.0177872046062604,0.000152592547379986,-0.00421664072593361,0.118706829025137,-0.30395418154444,-0.00086469110181992,0.0778374584185308,-1.85317545091098,0.530482904548275,-0.243858149967956,-0.327885779391868,0.0513117872656433,-0.00610370189519944,0.00167851802117985
4.65,2,0.00450148014770959,-0.270098981699067,0.0420697653126621,0.0174565874202704,0.000152592547379986,-0.00523392437513352,0.0966724651834671,-0.219092379528184,0.00820947904904324,0.0893073315632598,-1.33252967925047,0.586148665832494,-0.337397381511887,-0.341736096275725,0.0445824559261859,-0.00572222052674947,0.00167851802117985
4.68,2,-0.0413932716859442,-0.155847855057426,0.0343892737612028,0.0171666615802484,0.000152592547379986,-0.00530004781233151,0.120863470361441,-0.185542364777571,0.00619525742362743,0.0836003702912483,-0.857046215196183,0.489003163752149,-0.401740572323781,-0.360128584653259,0.0334737184769229,-0.00564592425305948,0.00167851802117985
4.71,2,-0.0630919319233782,-0.0725272377697073,0.0256711528875596,0.0169530320139164,0.000152592547379986,-0.00559506007059949,0.192948189743746,-0.176793725394452,0.000478123315123956,0.109810683512884,-0.22192042807296,0.344889675588244,-0.432543921221554,-0.369233273313598,0.0247606840215257,-0.00564592425305948,0.00167851802117985
4.74,2,-0.0573239336324147,0.0171157973977884,0.0143487858719647,0.0168055258847825,0.000152592547379986,-0.00549333170567949,0.153762423576566,-0.153538621173742,0.0300607318338572,0.159326965137689,0.117063915931679,0.211274554684083,-0.434471673736788,-0.376959542629271,0.00809757784763126,-0.00564592425305948,0.00167851802117985
4.77,2,-0.0586464023763746,-0.00180059205908383,0.00791446679077527,0.0165308592994985,0.000152592547379986,-0.00564083783481348,0.139133884701071,-0.144891710155543,0.0534175644194871,0.0717337565233314,0.351919105604216,0.0796583961505987,-0.419944863226213,-0.361064485610523,0.00933357748140914,-0.00564592425305948,0.00167851802117985
4.8,2,-0.0600502538122705,-0.000910468866033916,0.010869675791701,0.0162714519689525,0.000152592547379986,-0.00564592425305948,0.0999481185338908,-0.167414370148829,0.0617185989969583,-0.0358999399802647,0.548666849777724,-0.0160476495661285,-0.390860723695588,-0.330607013153478,0.010925626392407,-0.00553910946989349,0.00180059205908383
4.83,2,-0.0611082288074384,-0.00231940672017579,0.00997446618040508,0.0135705638803268,-0.0136722922452467,-0.00411491236101362,-0.398887091687775,-0.229956968901639,0.0174260689107944,-0.17225664031902,0.25599434390291,0.111916460666728,-0.36876023641672,-0.30741294595172,0.010442416659037,-0.00251777703176977,0.136860255745109
4.86,2,-0.0604266487624744,0.00424207281716361,0.0160273038931445,-0.0161290322580645,-0.126046530554114,0.0278939176610614,-0.0272733746350495,-0.191198461867122,0.0377513962218085,-0.152912991729484,0.369304483169042,0.358780683818069,-0.348282316558326,-0.287626778974782,0.0242622150334178,0.054562008524837,0.371822260200812
4.89,2,-0.0562506993825088,0.0172480442721844,0.0304269539475692,-0.0577969705292927,-0.118076113162633,0.0892412081260618,-0.0175888342946664,-0.205521815647857,-0.0286975717439294,-0.0833155308694723,0.40942106387524,0.17446923225603,-0.32535274310536,-0.268862982065289,0.0272377697073275,0.0902025411745557,0.54645934425896
4.92,2,-0.0529750460320851,0.0134739219336528,0.0233670054221218,-0.0850296538183742,-0.0820540991444645,0.0728832870469273,-0.0471714428133997,-0.179662465285195,-0.0115054780724509,-0.0813216549170405,0.377325764742983,0.0275124362926115,-0.30102949105299,-0.247861161127557,0.0235602893154698,0.0746279285053051,0.678874070457066
4.95,2,-0.054862107201351,-0.00316375214901171,0.032726014994761,-0.107364116336558,-0.065223141168452,0.0733461511073133,-0.0441399375387839,-0.165603605253253,-0.00515762810144353,-0.0477614673299356,0.356735943683177,0.0388042847987304,-0.278547522405672,-0.223456526383251,0.0352590512812688,0.0748161259804071,0.743095187231056
4.98,2,-0.0554063539536729,-4.57777642139958e-05,0.0338348541723889,-0.121936704611347,-0.0389365316731264,0.0663777581102939,-0.0477004303109836,-0.15459659616891,-0.0086774295276752,-0.0266884365367595,0.381425417849259,0.0163223161514125,-0.25746940519425,-0.201823989583015,0.0338653726818649,0.0670339060640278,0.770653401287881
5.01,2,-0.0558743044323049,0.000152592547379986,0.0339365825373089,-0.130324208299,-0.0238044373912778,0.0600248217210405,-0.0530513423057751,-0.148777733695486,-0.0103254290393791,-0.0115309101636809,0.390799686676636,0.0164291309345785,-0.239443138930428,-0.183406069114251,0.0340688294117049,0.0600146488845485,0.813643808303069
5.04,2,-0.0562964771467228,0.000152592547379986,0.0341451256853949,-0.136611021251055,-0.0140181686859747,0.0580563778598387,-0.0446078880174159,-0.159560940377005,-0.0146997487309386,-0.010503453677989,0.412737408571632,-0.00513728242845953,-0.22115746533606,-0.164652445041251,0.0343333231604968,0.0586413159581286,0.889177119256162
5.07,2,-0.0566016622414828,0.000152592547379986,0.0344960885443688,-0.139937538783939,-0.00746686198512731,0.054439934486933,-0.0339264097008169,-0.168004394665365,-0.0139876501764987,-0.0189519943845943,0.40881069368572,-0.053931292662333,-0.196483250424716,-0.139632353689179,0.0346232490005188,0.0548977121290729,0.987812941882585
5.1,2,-0.0568763288267668,0.000152592547379986,0.0348470514033428,-0.137297687714265,0.0130873541469568,0.0455946531571398,-0.0241808323414818,-0.171686961475468,-0.0124820703756829,-0.0367442854091006,0.38631855220191,-0.0229906104719179,-0.172653380942208,-0.115583768222093,0.0347911008026368,0.0442416659037039,1.06676941231524
5.13,2,-0.0571967731762647,0.000152592547379986,0.0347707551296528,-0.126946826583656,0.0442772708314259,0.0347097181107008,-0.022064882351146,-0.161839655751213,-0.00991851557969909,-0.0505691702017273,0.381374553666799,-0.0010732342499059,-0.147485783461002,-0.0900397757906837,0.0347911008026368,0.0257067578152816,1.0951719718009
5.16,2,-0.0575680817082227,0.000152592547379986,0.0350555945514288,-0.107994832199062,0.0639566230251981,0.0115563422549109,-0.0355744092125207,-0.156753237505214,-0.0114037497075309,-0.0577206742556027,0.380230109561449,-0.00242113508509578,-0.128737245806248,-0.0709657073681855,0.0352183599353008,0.00448622089297159,1.0919319233782
5.19,2,-0.0578732668029827,0.000152592547379986,0.0352488784447768,-0.0966419466739911,0.0286670532344534,0.0065309610278634,-0.0269478438673055,-0.155776645201982,-0.011118910285755,-0.0706503494369335,0.37239702546261,-0.0115970336008789,-0.115278583127333,-0.0571815139215267,0.0352488784447768,0.0178228095339824,1.06965341146072
5.22,2,-0.0579851680043947,0.000152592547379986,0.0352743105360067,-0.0831273333943704,0.0507624540950753,0.010523799350973,-0.0171819208349864,-0.157200842310862,-0.00753807184057131,-0.0736411633655812,0.382829269285155,-0.0122328358816289,-0.0955432803328552,-0.0373037914161606,0.0352488784447768,0.00781782484410128,1.06170333974222
5.25,2,-0.0579851680043947,0.000152592547379986,0.0352793969542528,-0.0617999816888943,0.0628884751935382,-0.0065309610278634,-0.0256050294503616,-0.158543656727805,-0.00619525742362743,-0.0717388429415774,0.398907437360759,-0.0140079958494827,-0.076021607104709,-0.0178126366974904,0.0352488784447768,-0.0122379222998749,1.05989766126489
5.28,2,-0.0579851680043947,0.000152592547379986,0.0352590512812688,-0.0441399375387839,0.054790897345907,-0.0086977752006592,0.00275683868933175,-0.161066520177821,-0.00745668914863531,-0.0718507441429894,0.415712963245542,-0.0177617725150304,-0.0516067995239112,0.0065004425183874,0.0352488784447768,-0.011169774468215,1.06365143793044
5.31,2,-0.0560116377249468,0.00689718314157537,0.0332855210018209,-0.0193182164983062,0.0820642719809565,-0.0184535253964863,-0.0162460198777225,-0.164850815352845,-0.00517797377442752,-0.064994252347382,0.466221096428317,-0.00623594876959543,-0.022064882351146,0.0339976195562609,0.0313526820683411,-0.0343638416699728,1.0684021525722
5.34,2,-0.0510574663533433,0.0157475508896146,0.0271411277606535,0.00496434420809554,0.0694703004038616,-0.0356354462314727,-0.0195013275551622,-0.167577135532701,-0.00733461511073133,-0.0794600258390047,0.497197383546454,-0.0123599963377789,0.0021566413363038,0.0533972187465031,0.0251675974812057,-0.0399690745770643,1.07596057008576
5.37,2,-0.0415763827428002,0.0307016205328532,0.0165308592994985,0.0261136712749616,0.0698466953540656,-0.0419934690389721,0.00137333292641987,-0.165054272082685,-0.0043234555090996,-0.0913012075156916,0.557430748415581,-0.00380464084800765,0.0333669036937569,0.0751365703299051,0.010803552354503,-0.0452182582069358,1.07801548305714
5.4,2,-0.032970163070569,0.0269987080497655,0.00832138025045523,0.0549638355662709,0.0925626392406995,-0.0749534592730491,-0.0175481429486984,-0.169937233598844,-0.00371308531957966,-0.101117994730471,0.697602262438836,-0.022014018168686,0.0705791395814895,0.103752759381898,0.00671407208471938,-0.0769066438795129,1.07584866888434
5.43,2,-0.0229295734529659,0.0228380179245379,0.00621560309661143,0.0850042217271442,0.0959400209560432,-0.097384563737907,0.00564592425305948,-0.163019704784285,-0.00778221991637928,-0.122775963621937,0.830673136590676,-0.0346283354187648,0.118198187200537,0.141371908729311,0.00493382569861955,-0.100477106031475,1.06155583361309
5.46,2,0.0120548112430189,0.0985035757520269,-0.0282906582842494,0.114790286975717,0.0892259488713238,-0.125675222022156,0.00369273964659566,-0.17795342875454,-0.00184128340505183,-0.140568254646443,0.853714611245053,-0.0748212123986531,0.167465234331289,0.155501978616698,-0.0483311461734876,-0.129113640756452,1.01028473769341
5.49,2,0.043936480808944,0.0909655039114556,-0.0737632374034852,0.140252896715191,0.0726747438988413,-0.150496943062634,0.0470697144484797,-0.162490717286701,-0.00188197475101983,-0.129896949166336,0.82433545945616,0.0600400809757785,0.219367046113468,0.175491602323476,-0.0732749412518693,-0.156559953611866,0.951180557674897
5.52,2,0.0719321268349254,0.0800500503555406,-0.0773949400311289,0.15541042308827,0.0314035462508011,-0.158574175237281,0.0204982655313781,-0.208838160344249,0.00405896176030763,-0.146621092359183,0.753329060742007,-0.0265409304076256,0.26609088412122,0.194260485651214,-0.0741701508631652,-0.162358470412305,0.873114210435296
5.55,2,0.108767967772454,0.112277596362194,-0.0449435916216519,0.15647857091993,-0.0159103162734865,-0.162216050701417,0.0011291848506119,-0.245460371715445,-0.000417086296171962,-0.15347758415479,0.781975768303476,-0.00884019491154719,0.311278623818679,0.202581865901669,-0.0382295195369325,-0.174270861944436,0.737449262977996
5.58,2,0.176905626595864,0.218502355011648,-0.0279346090070294,0.13190099795526,-0.116570533361817,-0.161453087964517,-0.0205999938962981,-0.273537400433363,0.000478123315123956,-0.0475274920906196,0.893297118035422,0.0626443271177302,0.362366608681499,0.185552537614063,-0.0165105136265145,-0.177556688131352,0.531113620410779
5.61,2,0.274269844660787,0.32436089154739,-0.0101524908190151,0.0715353862117374,-0.234046449171422,-0.137709687592191,-0.0509557379884233,-0.289040803247169,-0.0162460198777225,-0.00101728364919991,1.0270800907417,0.190771202734458,0.419741406496373,0.145552944527523,0.00188197475101983,-0.146020895006155,0.386832280444756
5.64,2,0.395682648192796,0.411755729850154,0.00207525864436781,-0.0168156987212745,-0.323842076886298,-0.0998565630054628,-0.0365103101697846,-0.26202174952442,-0.0164901679535305,0.146234524572487,1.09521774956511,0.340138960946481,0.483891313414919,0.0883103935870439,0.00814844203009125,-0.0984832300790429,0.254961800998973
5.67,2,0.530808435316019,0.461358480585142,-0.00599180069378745,-0.119815668202765,-0.35132908108768,-0.0386364329966124,-0.0100202439446191,-0.23459578234199,-0.00578834396394747,0.166915901160721,1.00492365286213,0.501378419344666,0.547837763603626,0.0171208838160344,-0.00695822016052736,-0.0189214758751183,0.115024262215033
5.7,2,0.658385977762179,0.440443128757591,-0.022054709514654,-0.208594012268441,-0.268176315602079,0.0625832900987782,0.0151270078636026,-0.119317199214657,0.00190232042400382,0.290322580645161,0.689799696849473,0.487238176620787,0.599261452070681,-0.0588803776156906,-0.0279956460259814,0.123376160974965,0.0310169784641051
5.73,2,0.75599434390291,0.339548936429945,-0.0316273486536251,-0.213314208400728,0.0894192327646718,0.103854487746818,-0.00794498530025127,-0.0715048677022614,-0.0076194545325073,0.317046622109643,0.182449822484003,0.403047781813003,0.625151320942818,-0.130588702047792,-0.0344960885443688,0.127058727785068,0.00779239275287128
5.76,2,0.811375265765353,0.199387595243182,-0.0250353506068097,-0.132063763339132,0.327504298023418,0.0458286283964558,-0.032603940956857,0.000681580044963937,-0.0033061718598997,0.415326395458846,-0.419853307697785,0.319956053346355,0.616941841893775,-0.194158757286294,-0.0252489801731417,0.0440687276833399,0.00288908556372773
5.79,2,0.8273364462213,0.0660827458520259,-0.0485854670857875,-0.0237230546993418,0.384899441511277,0.0168055258847825,-0.0338653726818649,-0.0131941689301228,0.00825017039501124,0.347931353699352,-0.957986185288044,0.212836085085604,0.573697113966287,-0.253425702688681,-0.0696432386242256,-0.0451063570055239,0.00186162907803583
5.82,2,0.767672760195725,-0.19541001617481,-0.104647968993194,0.0730409660125533,0.307331563259784,-0.0502436394339834,-0.189998067161067,0.0893887142551958,0.00255338195949177,0.284045940529598,-1.75268817204301,0.21571499781284,0.495508692688782,-0.271899573758151,-0.110405794447666,-0.112837102369254,0.00167851802117985
5.85,2,0.637440107425153,-0.434461500900296,-0.0449334187851599,0.100497451704459,0.0385347046316925,-0.0464084800764997,-0.113050731935586,-0.0927050589515875,0.0274157943459375,0.30385245317952,-2.68895535142064,0.0562964771467228,0.276345103305155,-0.360840683207699,-0.0454217149367758,-0.0552181564785709,0.00167851802117985
5.88,2,0.480544450209052,-0.525732189906512,-0.00831120741396323,0.075980915758741,-0.100853500981679,-0.0191045869319742,0.0362865077669607,-0.310932747377951,0.0398673462121443,0.230058697266559,-2.88826156397188,0.250292469049145,0.0716879787591174,-0.408642841883602,-0.00247199926755577,-0.00387585070345164,0.00167851802117985
5.91,2,0.312458672851751,-0.558661661631113,0.0301828058717612,0.0468052206996877,-0.0846379996134322,0.0064800968454034,0.11042614012065,-0.383485417238889,0.0296945097201453,0.151046276233202,-2.52221238848028,0.338969084749901,-0.0895311339660838,-0.401938942635375,0.0333058666748049,0.0076499730419833,0.00167851802117985
5.94,2,0.168380789615569,-0.484135461490727,0.043977172154912,0.0379650257881405,-0.0138655761385947,-0.00158696249275185,0.128533789076408,-0.336161381878109,0.0263985106967376,0.158289335815505,-1.96639912106693,0.503921628467666,-0.223436180710267,-0.391725414797408,0.0488499608345795,-0.00789412111779127,0.00167851802117985
5.97,2,0.0633767713451542,-0.356517227698599,0.0442620115766879,0.0373546555986206,0.000142419710887987,-0.00712098554439934,0.10676391898353,-0.243995483260598,0.0304676452935372,0.0923693553473515,-1.38923306985687,0.587827183853674,-0.324116743471582,-0.387401959288308,0.0480768252611876,-0.0129703665272988,0.00167851802117985
6,2,-0.000396740623187963,-0.218095441551968,0.0372427543972086,0.0368358409375286,0.000152592547379986,-0.010752688172043,0.0915046642455316,-0.190893276772362,0.0316883856725771,0.0370901618498286,-0.897081413210445,0.539933469649342,-0.391511785231076,-0.390972624897,0.0373546555986206,-0.0129703665272988,0.00167851802117985
6.03,2,-0.032980335907061,-0.111504460788802,0.0267342143009735,0.0351064587338888,-0.00704977568895535,-0.0117903174942269,0.086703085421308,-0.174372590309356,0.021637623218482,0.0427157404299041,-0.474033834854172,0.383434553056429,-0.431002736493016,-0.397798598183131,0.0251167332987457,-0.010681478316599,0.00167851802117985
6.06,2,-0.0487685781426435,-0.0518306019267352,0.0191452782779422,0.0338755455183569,-0.000478123315123956,-0.010722169662567,0.0697347941526536,-0.169082715333516,0.0224514501378419,0.0594602292957345,-0.158645385092725,0.144698426262195,-0.448795027517523,-0.399802646972055,0.0174260689107944,-0.011363058361563,0.00167851802117985
6.09,2,-0.054394156722719,-0.0175684886216824,0.0140486871954507,0.0337534714804529,0.000152592547379986,-0.011215552232429,0.0630614134139022,-0.15663116346731,0.0260526342560096,0.0610166732790104,0.0641855118462681,-0.000905382447787917,-0.441160313730277,-0.386532181768242,0.0125125888851588,-0.0117292804752749,0.00167851802117985
6.12,2,-0.0567796868800928,-0.0064800968454034,0.0114953052359589,0.0335652740053509,0.000152592547379986,-0.011240984323659,0.054414502395703,-0.149896745709606,0.0332753481653289,0.0292926826787113,0.233217362997325,-0.0260221157465336,-0.344670959603666,-0.287682729575488,0.011118910285755,-0.0114444410534989,0.00167851802117985
6.15,2,-0.0572018595945107,-0.000167851802117985,0.0102694784386731,0.0333160395112969,0.000152592547379986,-0.0114546138899909,0.0443433942686239,-0.155939410585854,0.0342519404685609,-0.0317087313455611,0.377671641183711,0.000701925717947935,-0.240791039765618,-0.183360291350037,0.00991851557969909,-0.0114444410534989,0.00167851802117985
6.18,2,-0.0581682790612506,-0.00175481429486984,0.0100965402183091,0.0317748547827591,-0.00687683746859137,-0.0115461694184189,-0.272682882168035,-0.187719351786859,0.00686666463209937,-0.13391013316243,0.219972329884742,0.0940580462050234,-0.17635120700705,-0.117979471215959,0.0100405896176031,-0.00948617002878913,0.0127160456149988
6.21,2,-0.0622221544033123,-0.011139255958739,0.011373231198055,0.0246742149113437,-0.0309305093539232,-0.00598162785729545,-0.054353465376751,-0.182775353251747,-0.00717184972685934,-0.137297687714265,0.244453260902738,0.346232490005188,-0.163604642882575,-0.101168858912931,0.0128177739799188,-0.00315866573076571,0.114296904405855
6.24,2,-0.0597705008087405,0.00726849167353333,0.0152083905555386,-0.00269071525213375,-0.103823969237342,0.0151575263730786,-0.0876186407055879,-0.140883612577695,0.00163782667521185,-0.0279702139347514,0.21848709575691,0.17322305978576,-0.157460249641408,-0.097440514338613,0.021785129347616,0.0410575680817082,0.215770948413546
6.27,2,-0.0561744031088188,0.0138096255378887,0.032110558386995,-0.032568336029135,-0.0810266426587725,0.0582903530991546,-0.0187078463087863,-0.178116194138412,-0.032441175572985,-0.0428072959583321,0.285800754824468,0.0847092094688762,-0.142913093457849,-0.086499628691468,0.0297148553931293,0.0605945005645924,0.299116997792495
6.3,2,-0.0512100589007233,0.0175277972757144,0.021647796054974,-0.0451877396974598,-0.0304015218563392,0.0389568773461104,-0.0456251716666158,-0.165766370637125,0.000457777642139958,-0.032227546006653,0.317326375113173,0.00854009623503321,-0.124220506403801,-0.0727662994272693,0.021342610960214,0.032919298888109,0.390423291726432
6.33,2,-0.0512710959196753,0.00169886369416384,0.0282550533565274,-0.0598467970824305,-0.0517136143070772,0.0406099632760603,-0.0491856644388155,-0.151524399548326,-0.00727357809177933,0.0121260210984629,0.270821253089999,0.0389517909278644,-0.121789198482213,-0.0702536088137455,0.0300658182521032,0.0467543565172277,0.489608447523423
6.36,2,-0.0514084292123173,0.000167851802117985,0.0314951017792291,-0.0786614581743828,-0.0567796868800928,0.0584225999735506,-0.0343333231604968,-0.164647358623005,-0.0116478977833389,0.0165918963184505,0.280485447757398,0.0789106926684367,-0.114383373516037,-0.0627714875738802,0.0312814722128971,0.0597298094627725,0.597018341624195
6.39,2,-0.0514236884670553,0.000152592547379986,0.0312967314676351,-0.0914232815535956,-0.0358134708700827,0.0534633421837011,-0.0414746543778802,-0.151707510605182,-0.00454725791192358,0.0723237810398673,0.292550431836909,0.0311136204107791,-0.105436363821324,-0.053768527278461,0.0312814722128971,0.0534429965107171,0.732083091728467
6.42,2,-0.0497807753735974,0.00665812148401339,0.0291197444583473,-0.102191228980377,-0.032715842158269,0.0532649718721071,-0.0383617664113285,-0.171280048015788,-0.0209662160100101,0.0933154291411074,0.314462721640675,0.0532293669443851,-0.097877946307769,-0.0479089734590696,0.0275989054027935,0.054638304798527,0.909772026734214
6.45,2,-0.0476699118015076,0.00790938037252927,0.0261085848567156,-0.10849330118717,-0.0114495274717449,0.0487838373973815,-0.0165308592994985,-0.181290119123915,-0.0186875006358023,0.0567746004618468,0.299635812453586,0.00425224565365561,-0.0794956307667267,-0.0316222622353791,0.0255083875036877,0.0474562822351756,1.08299000010173
6.48,2,-0.0466984059165217,0.00335194962411369,0.0246945605843277,-0.10587379579048,0.0151524399548326,0.0380006307158625,-0.0185043895789463,-0.174413281655324,-0.0196030559200822,0.0239112521744438,0.260022787153742,0.0160425631478825,-0.0628325245928322,-0.0159204891099785,0.0261899675486516,0.032405570645263,1.17798903368226
6.51,2,-0.0468713441368857,0.000239061657561978,0.0283211767937254,-0.0969064404227831,0.032654805139317,0.0252540665913877,-0.0236721905168818,-0.160130619220557,-0.0162663655507065,0.00162765383871985,0.219941811375266,0.0276141646575315,-0.0559048229417809,-0.00886054058453118,0.0283669545579394,0.0187841425824763,1.18141219316182
6.54,2,-0.0470646280302337,0.000152592547379986,0.0285958433790094,-0.0854162216050701,0.0371868037965026,0.0167495752840765,-0.0282092755923134,-0.153864151941486,-0.0157373780531226,-0.00101219723095391,0.203339742220323,0.0286009297972554,-0.0559912920519628,-0.0087333801283812,0.0286721396526994,0.0100812809635711,1.1423332417778
6.57,2,-0.0472273934141057,0.000152592547379986,0.0288603371278013,-0.0771965697195349,0.0235094251330098,0.0136977243364767,-0.0245877458011617,-0.155980101931822,-0.0172022665079704,-0.0134535762606688,0.206045716727195,0.0145929339477727,-0.0586209702851446,-0.011215552232429,0.0288399914548173,0.0153915016123946,1.10322377188431
6.6,2,-0.0474969735811436,0.000152592547379986,0.0288043865270953,-0.0696127201147496,0.0235602893154698,0.0139469588305307,-0.0277616707866654,-0.157485681732637,-0.0165512049724825,-0.0288603371278013,0.236996571754102,0.00416069012522762,-0.0581479333882666,-0.010437330240791,0.0288399914548173,0.0125532802311268,1.08794417147333
6.63,2,-0.0478021586759036,0.000152592547379986,0.0290129296751813,-0.0632241787977742,0.0181127353740043,0.0138960946480707,-0.0234280424410738,-0.159031952879421,-0.0159204891099785,-0.0372071494694866,0.263908810693686,-0.0064953561001414,-0.0570136621194088,-0.00897244178594317,0.0292265592415133,0.0139011810663167,1.08585365357423
6.66,2,-0.0471256650491857,0.00286873989074374,0.0293537196976633,-0.0488347015798415,0.0504521825820694,0.00277718436231574,-0.0147404400769066,-0.157506027405622,-0.0121768852809229,-0.0360830510371207,0.310825932594785,-0.00679545477665537,-0.0448825546026999,0.00231940672017579,0.0285754977060254,-0.00612404756818344,1.09231340474665
6.69,2,-0.042990407015188,0.0138960946480707,0.0229600919624419,-0.0309661142816452,0.0521052685120192,-0.0102033550014751,-0.0184636982329783,-0.162022766808069,-0.0166529333374025,-0.043351542710654,0.367809076204718,-0.00949125644703513,-0.0257118442335276,0.0173446862188584,0.0202541174555701,-0.0164291309345785,1.08947518336538
6.72,2,-0.0340739158299509,0.0280363373719494,0.0142521439252907,-0.0147811314228746,0.0479394919685456,-0.0150964893541266,-0.0206610309152501,-0.162551754305653,-0.0152897732474746,-0.0534836878566851,0.446261991231015,-0.0114240953805149,-0.00153609831029186,0.032685323648793,0.00855026907152521,-0.0192571794793542,1.08142338328196
6.75,2,-0.0247301655120497,0.0241655730867438,0.00153101189204586,0.00740073854792932,0.076067384868923,-0.0264544612974436,-0.00814844203009125,-0.161127557196773,-0.0150863165176346,-0.0625222530798262,0.557262896613463,0.00137333292641987,0.0291604358043153,0.054099144464451,0.00184128340505183,-0.0398012227749463,1.08040101321451
6.78,2,-0.00807723217464726,0.0402742596718243,-0.000498468988107954,0.033076977853735,0.0751721752576271,-0.0516169723604033,0.0125024160486668,-0.157383953367718,-0.00690735597806736,-0.0634276355276142,0.430855230363882,-0.0229092277799819,0.0590431429995626,0.0673136590675578,-0.0087282937101352,-0.0566220079144668,1.05396689759006
6.81,2,0.0168207851395205,0.0666117333496099,-0.0343943601794488,0.0531327249977111,0.0625985493535162,-0.0573137607959227,0.00678528194016338,-0.163345235552029,-0.0126041444135868,-0.0639973143711661,0.440326141137933,0.00918098493402916,0.0851466414380322,0.0684377574999237,-0.0444603818882819,-0.0588142541784926,1.03678497675507
6.84,2,0.0254117455570137,0.0181279946287423,-0.0313526820683411,0.0713522751548814,0.0466577145705537,-0.0664438815474919,0.0256253751233456,-0.166641234575437,-0.0168156987212745,-0.0855739005706961,0.228868475396995,-0.0258695231991536,0.10556861069572,0.0802687663401186,-0.0255999430321156,-0.0722780032756534,0.97911008026368
6.87,2,0.0277871028778954,-0.00152592547379986,-0.0205440432955921,0.075777459028901,0.00254829554124577,-0.054862107201351,0.0209051789910581,-0.172480442721844,-0.00381481368449965,-0.0696127201147496,0.0601672414319285,0.00911994791507716,0.113600065106154,0.0858841720837021,-0.0171819208349864,-0.0551062552771589,0.816278572954497
6.9,2,0.022019104586932,-0.0199794508702862,-0.010686564734845,0.0716778059226254,-0.0256558936328216,-0.0456912951038138,0.0273140659810175,-0.189367351298563,-0.00167851802117985,-0.0190740684224982,-0.124362926114689,0.0248420667134617,0.111311176895454,0.0893581957457198,-0.00409965310627562,-0.0429293699962361,0.495869828384248
6.93,3,0.0065258746096174,-0.0441348511205379,0.00516271451968953,0.0549180578020569,-0.0665761284218879,-0.0258390046896776,0.0210069073559781,-0.294452752260913,0.021210364085818,-0.119357890560625,0.011068046103295,0.115497299111911,0.10691651153091,0.100538143050427,0.0140232551042207,-0.00987782423373109,0.167312641783909
6.96,3,-0.00714133121738334,-0.0348673970763268,0.0262357453128656,0.0350403352966908,-0.054770551672923,0.00571713410850347,0.0620034384187343,-0.295164850815353,0.0316883856725771,-0.213212480035808,0.176193528041424,0.183055106255277,0.111275571967732,0.118635619169693,0.0253252764468317,0.00702943001597135,0.0362051250750247
6.99,3,-0.00949634286528113,-0.00248725852229377,0.0121870581174149,0.0277769300414034,-0.010574663533433,-0.00144962920010987,0.0133569343139948,-0.232398449659719,0.0207831049531541,-0.133523565375734,0.328470717490158,0.0263476465142776,0.128884751935382,0.138635415712963,0.00770083722444329,-0.010981576993113,0.0087333801283812
7.02,3,-0.010859502955209,0.00011190120141199,0.00718710898159734,0.0265053254799036,-0.000183111056855983,-0.010472935168513,-0.0190130314035463,-0.225297809788303,0.0210882900479141,-0.181585131382183,0.331013926613158,-0.128579566840622,0.148233486943164,0.159321878719443,0.00657673879207739,-0.0200811792352062,0.00308236945707572
7.05,3,-0.00884528132979319,0.00788394828129927,0.0123549099195329,0.0225328328297779,-0.0131585640024008,-0.0128076011434268,-0.0249946592608417,-0.217688528092288,0.00489313435265155,-0.176458021790216,0.445158238471633,-0.22247993408002,0.17078157902768,0.179865922015035,0.0412355927203182,0.0235450300607318,0.00191249326049582
7.08,3,0.0357676931058687,0.148716696676534,0.118177841527553,0.0338246813358969,0.0811792352061525,0.0843429873551642,0.0411287779371522,-0.240780866929126,-0.0102237006744591,-0.10478021586759,0.781884212775048,-0.0754926196071251,0.205389568773461,0.16971343119602,0.123630481887265,0.13164667704296,0.00167851802117985
7.11,3,0.165440839869381,0.435672068442844,0.0357270017599007,0.107852412488174,0.295175023651845,0.0273954486729535,0.075879187393821,-0.328307952106286,-0.00814844203009125,-0.142511266416415,1.64498835210222,0.159235409609261,0.281116163619902,0.115766879278949,0.0283211767937254,0.0119937742240669,0.00167851802117985
7.14,3,0.30263171280048,0.47443057547736,0.00578834396394747,0.188980783511867,0.257810195216732,-0.0196844386120182,-0.0401318399609363,-0.248390148625141,-0.0258491775261696,-0.119479964598529,1.61353394166896,0.405326497187211,0.382173121331421,0.0796126183863847,0.00452691223893958,-0.0306100650044252,0.00167851802117985
7.17,3,0.429843033132928,0.434929451378928,0.00102745648569191,0.232642597735527,0.126285592211676,-0.0155135756502986,-0.0733359782708213,-0.178889329711804,-0.021739351583402,-0.0280770287179174,1.32364879299295,0.288867865026805,0.470208848333181,0.0404573707286803,0.00607318338572344,-0.00937935524562314,0.00167851802117985
7.2,3,0.551245663828445,0.411562445956806,0.00256355479598376,0.247769605599129,0.0423189998067161,0.00425224565365561,-0.086886196478164,-0.111301004058962,-0.00403861608732363,0.010498367259743,0.911242001607308,0.0834274320708843,0.535884680725527,-0.0151575263730786,0.00395723339538764,0.0137028107547227,0.00167851802117985
7.23,3,0.664642272204759,0.384838404492325,-0.00230923388368379,0.251146987314473,0.0115766879278949,0.0126956999420148,-0.0509150466424553,-0.117852310759809,-0.0075787631865393,-0.0611082288074384,0.665924049602751,0.0144454278186387,0.583066296375418,-0.0813318277535325,-0.00257372763247576,0.0240791039765618,0.00147506129133986
7.26,3,0.764824365977966,0.342773725597908,-0.00339772738832769,0.253680023600981,0.0139367859940387,0.0192470066428622,-0.0407422101504562,-0.10381379640085,-0.0126651814325388,-0.0833969135614083,0.363261818292795,-0.0418408764915922,0.613035472680848,-0.151565090894294,-0.00364187546413566,0.0238146102277698,0.00152592547379986
7.29,3,0.848139896847438,0.286924853256834,-0.00118004903307189,0.256253751233456,0.0102033550014751,0.021515549180578,-0.043997517827896,-0.0911994791507716,-0.0138859218115787,-0.0844141972106082,0.0621356852931303,-0.0387483341980244,0.62531408632669,-0.22258166244494,-0.000620543026011943,0.022176783552558,0.00163782667521185
7.32,3,0.918739382101911,0.243893754895678,-0.00121056754254789,0.25668101036612,0.00589007232886746,0.0237128818628498,-0.0284127323221534,-0.0964079714346751,-0.0138859218115787,-0.0614541052481663,-0.217790256457208,-0.0193792535172582,0.619973347168391,-0.298572751040173,-0.00123091321553189,0.0249641407513657,0.00167851802117985
7.35,3,0.973164057334106,0.190740684224982,0.000142419710887987,0.25825780002238,0.00795515813674327,0.0233568325856299,-0.0263781650237536,-0.0695923744417656,-0.0152694275744906,-0.106367178360342,-0.540136926379182,-0.101128167566963,0.596921699677521,-0.375998209580777,0.00170903653065584,0.0226447340311899,0.00167851802117985
7.38,3,1.01198360138757,0.139072847682119,0.00397757906837163,0.261686045920184,0.0157577237261066,0.021342610960214,-0.0011088391776279,-0.0790734580523087,-0.0232042400382499,-0.138136946724855,-0.871262754193752,-0.151534572384818,0.553554897712129,-0.458154037090162,0.00741599780266732,0.0182602415031383,0.00167851802117985
7.41,3,1.03249203975545,0.075726594846441,0.0141605883968627,0.268410290841395,0.0235399436424858,0.0162663655507065,0.0810469883317566,-0.125705740531632,-0.0332956938383129,-0.0859604683573921,-1.00614439324117,-0.159672841578417,0.491449730928475,-0.540767642241686,0.0202541174555701,0.0124820703756829,0.00167851802117985
7.44,3,1.03423159479558,0.0159103162734865,0.021281573941262,0.273862931201107,0.0148726869513026,0.00337738171534369,0.101474044007691,-0.120008952096113,-0.0409456668802962,0.0175888342946664,-1.04789371420433,-0.124301889095737,0.426628416801457,-0.607359029918312,0.00566626992604348,-0.0387890255439924,0.00167851802117985
7.47,3,1.01912493260496,-0.0422070986053041,-0.00587989949237546,0.267535426903083,-0.0389314452548804,-0.0356659647409487,0.0635090182195502,-0.0803348897773166,-0.0406608274585203,0.102053895687735,-1.14119897050895,-0.108401745658742,0.369823297830134,-0.649047313862524,-0.00372325815607166,-0.0534786014384391,0.00167851802117985
7.5,3,0.990427360861029,-0.0898871832433037,0.00635802280749942,0.23535874507889,-0.128818628498184,-0.0183924883775343,0.109653004547258,-0.10808638772749,-0.0313425092318491,0.175532293669444,-1.20179855749179,-0.172327850174464,0.298318430127873,-0.691885128330332,0.00908434298735517,-0.00308236945707572,0.00167851802117985
7.53,3,0.951333150222276,-0.1262550737022,0.0167851802117985,0.203192236091189,-0.0994598223822749,0.00938952808211514,0.137892798649047,-0.121311075167089,-0.0176295256406344,0.170456048259936,-1.13523768832464,-0.219468774478388,0.227830846074811,-0.72326832890815,0.0207525864436781,0.0103152562028871,0.00167851802117985
7.56,3,0.910102643920204,-0.134372997222816,0.0256253751233456,0.19134088157801,-0.0294707073173213,-0.00129195023448388,0.164504938912117,-0.151178523107598,-0.0151066621906186,0.174219997761976,-0.947650583412173,-0.261085848567156,0.164962716554257,-0.744905952126631,0.0272225104525895,-0.00837224443291523,0.00167851802117985
7.59,3,0.871222062847784,-0.125807468896552,0.0288806828007853,0.19088310393587,-0.00126143172500788,-0.00901313313191117,0.172276985992004,-0.156916002889086,0.00666320790225939,0.15256202887051,-0.631031220435194,-0.187271746981211,0.116936755475529,-0.754051332132939,0.0300098676513972,-0.0192978708253222,0.00167851802117985
7.62,3,0.848699402854498,-0.0740379039887692,0.0254931282489497,0.186559648426771,-0.0198777225053662,-0.0132755516220588,0.483565782647175,-0.123752555925169,0.0972014526810511,0.112887966551714,0.321960102135278,0.0786868902656128,0.109093498540198,-0.739382101911476,0.0239468571021658,-0.0120853297524949,0.00167851802117985
7.65,3,0.85308389538255,0.00860621967223121,0.0125431073946348,0.1792758974985,-0.0265511032441176,-0.00998972543514308,-0.0265002390616576,-0.0531530706706951,0.0591550442009746,0.144983265683971,0.294137394329661,-0.329426964120406,0.132267220068972,-0.720592872910754,0.00606301054923144,-0.00419120863470361,0.00167851802117985
7.68,3,0.857051301614429,0.011342712688579,0.00147506129133986,0.174871059297464,-0.0102237006744591,-0.0076499730419833,-0.122450432854193,-0.402162745038199,0.054597613452559,-0.133518478957488,0.148075807977538,-0.15688548437961,0.142480747906939,-0.714326405631682,0.00283822138126774,-0.00712098554439934,0.0398470005391603
7.71,3,0.858343251848913,0.00134281441694388,0.0054424675232195,0.172928047527492,-0.00710063987141535,-0.00843328145186722,0.0378734702597125,-0.0698365225175736,0.0161036001668345,0.0693278806929736,0.207444481744845,-0.104953154087954,0.155329040396334,-0.702800581886247,0.00591041800185146,-0.00827051606799524,0.0306609291868852
7.74,3,0.866857915992716,0.0167648345388145,0.00279753003529974,0.169784641051464,-0.00827051606799524,-0.00450656656595559,0.0420646788944161,-0.149957782728558,-0.000132246874395988,0.0161849828587705,0.182327748446099,0.0711081270790735,0.165868099002045,-0.700745668914864,0.00174972787662384,-0.00564592425305948,0.00990834274320709
7.77,3,0.875952431816563,0.021444339325134,0.000264493748791976,0.167261777601449,-0.00777204707988728,-0.00179041922259184,0.0276599424217455,-0.179214860479548,0.00076296273689993,0.0348826563310648,0.230903042695395,0.0925422935677155,0.178594317453536,-0.69711396628722,0.000457777642139958,-0.00477106031474756,0.0359609769992167
7.8,3,0.896928820663065,0.0595823033336385,-0.00480157882422356,0.167638172551653,0.000132246874395988,-0.00342824589780368,0.0309966327911211,-0.160496841334269,-0.0087181208736432,0.0293689789524013,0.237637460453098,0.0225226599932859,0.192693868831446,-0.703970458082827,-0.00855535548977121,-0.0076296273689993,0.0482497634815516
7.83,3,0.919044567196671,0.0664082766197699,-0.010925626392407,0.169092888170008,0.000152592547379986,-0.0054221218502355,0.0268868068483535,-0.157485681732637,-0.0114037497075309,-0.0144556006551307,0.254473504847357,0.0364187546413567,0.207485173090813,-0.711325418866543,-0.0134586626789148,-0.00830103457747124,0.0584531184830266
7.86,3,0.938179672638122,0.0584225999735506,-0.0129195023448388,0.172297331664988,0.00735496078371532,-0.00747703482161931,0.0312407808669291,-0.163589383627837,0.00523901079337952,-0.00563575141656748,0.251909950051373,-0.0444552954700359,0.222500279753004,-0.71543524480931,-0.0133671071504868,-0.0121972309539069,0.0832239753410444
7.89,3,0.957782728558204,0.0604571672719504,-0.0148726869513026,0.17708873765272,0.0100202439446191,-0.011240984323659,0.0379141616056805,-0.156753237505214,-0.00180059205908383,0.0260831527654856,0.271258685059155,0.0193690806807662,0.23825800347911,-0.719321268349254,-0.0227464623961099,-0.0150761436811426,0.102206488235115
7.92,3,0.967385886206651,0.0266630044455295,-0.0621763766390983,0.188207647938475,0.0373241370891446,-0.0169174270861944,0.0570390942106388,-0.129367961668752,-0.00558488723410749,0.0175379701122064,0.226233710745567,0.0300810775068412,0.253842788984853,-0.713309121982482,-0.0693482263659576,-0.0242927335428938,0.1349019847204
7.95,3,0.963408307138279,-0.0152999460839666,-0.0619017100538143,0.206457716605121,0.0605385499638864,-0.0291044852036093,0.0455641346476638,-0.170588295134332,-0.00188197475101983,-0.00570696127201147,0.154535559149958,-0.0230007833084099,0.264829452396212,-0.698344879502752,-0.0674764244514298,-0.0410473952452162,0.193497522914314
7.98,3,0.950000508641825,-0.0529496139408551,-0.108818831954914,0.2211066011536,0.0351166315703808,-0.0424512466811121,0.0480869980976796,-0.145278277942239,-0.0043641468550676,0.00128177739799188,0.0307117933693452,0.000335703604235969,0.270546586504715,-0.679219946897794,-0.119937742240669,-0.0560421562344228,0.249153111362041
8.01,3,0.906664225185909,-0.155374818160548,-0.145812351858069,0.220109663177384,-0.0180160934273303,-0.0584632913195186,0.0512812687561673,-0.165135654774621,0.00277718436231574,0.0278633991515854,-0.142984303313293,0.00884528132979319,0.270617796360159,-0.635827712841172,-0.143136895860673,-0.0598162785729545,0.334884690898363
8.04,3,0.862519201228879,-0.162485630868455,-0.174759158096052,0.212393566698202,-0.0310780154830571,-0.0600553402305165,0.0522578610593992,-0.149245684174118,-0.00293994974618773,0.0714133121738334,-0.204850408439385,0.0518611204362112,0.271187475203711,-0.591092664367606,-0.184840439059623,-0.0627816604103722,0.405799534084089
8.07,3,0.794279814040549,-0.243552964873196,-0.232688375499741,0.199219743441064,-0.0559455142877489,-0.0614032410657064,0.0405590990936003,-0.131992553483688,-0.00517797377442752,0.0669881282998138,-0.369609668263802,0.0554775638091169,0.278557695242164,-0.515457625049593,-0.240780866929126,-0.0665150914029359,0.47333699555447
8.1,3,0.711696727398501,-0.290409049755343,-0.239651682078514,0.177383749910988,-0.0846481724499242,-0.054556922106591,0.0401725313069043,-0.163426618243965,-0.00619525742362743,0.0577461063468327,-0.472538427889849,0.0309050772626932,0.268481500696839,-0.442971078625853,-0.247220272428561,-0.0618711915443383,0.549109368165125
8.13,3,0.632399466943368,-0.287230038351594,-0.242042298654134,0.145380006307159,-0.117542039246803,-0.054012675354269,0.0456862086855678,-0.144525488041831,-0.00843328145186722,0.0728883734651733,-0.552730897956277,0.032883693960387,0.242077903581856,-0.39008250170395,-0.265388958403272,-0.0496637877539394,0.605299030528682
8.16,3,0.546932381155838,-0.305856501968444,-0.242433952859076,0.116280607521795,-0.0958993296100752,-0.0464695170954517,0.0292469049144973,-0.161269976907661,-0.0116682434563229,0.0307067069510992,-0.642541784925891,0.00159713532924385,0.202007100639871,-0.34469130527665,-0.269356364635151,-0.0429598885057121,0.65032400484227
8.19,3,0.447920163579211,-0.348236538794112,-0.232662943408511,0.0880916776024659,-0.101972512995799,-0.0373393963438826,0.0130517492192348,-0.159438866339101,-0.00352997426272368,0.0380158899706005,-0.728695537176631,-0.000712098554439934,0.147231462548702,-0.3004445529547,-0.261014638711712,-0.0349640390230008,0.670216986602374
8.22,3,0.337163406272571,-0.38883632923368,-0.184174118269397,0.0489160842717775,-0.139886674601479,-0.0276192510757775,0.00454725791192358,-0.158340199997965,-0.00395723339538764,0.0557064526301869,-0.857158116397595,-0.00860621967223121,0.0952635273293252,-0.241711681468144,-0.227195043794061,-0.0158696249275185,0.682816044597715
8.25,3,0.211706900234993,-0.434334340444146,-0.108457696259448,0.00134281441694388,-0.157144891710156,0.00144962920010987,0.0342112491225929,-0.157160150964894,0.00182093773206783,0.02198349965921,-1.00110375275938,-0.0364543595690786,0.0385957416506445,-0.172836491999064,-0.086779381694998,0.0132704652038128,0.667414370148829
8.28,3,0.100441501103753,-0.383988972645243,-0.000940987375509913,-0.0378582110049745,-0.112821843114516,0.0165105136265145,-0.0226955982136499,-0.172643208105716,0.00053916033407595,0.0513880835393333,-0.82410657063509,0.043336283455916,-0.0184586118147323,-0.118778038880581,0.0480412203334656,0.0348216193121128,0.592420219529811
8.31,3,0.054043193863745,-0.154484694967498,0.0902635781935077,-0.0611438337351604,-0.0535243792026531,0.0331736198004089,-0.0561235389263588,-0.167943357646413,-0.0314035462508011,-0.0805434329254026,-0.291940061647389,0.193873917864518,-0.0556454156112349,-0.109607226783044,0.0940122684408093,0.0462202826013977,0.489649138869391
8.34,1,0.0566321807509588,0.0208695740633361,0.0608844264046144,-0.0558946501052889,0.0454420606097598,0.0369579149754326,-0.0993987853633229,-0.112521744438002,0.00995920692566708,-0.0202235989460941,0.316827906125065,0.138014872686951,-0.0495569729707734,-0.10610268461155,0.0614642780846583,0.0358083844518367,0.441989399904375
8.37,1,0.0790938037252927,0.0941546881516973,0.0238603879919838,-0.0420138147119561,0.054185613574633,0.0273598437452315,-0.0458693197424238,-0.157770521154413,-0.0272123376160975,-0.0422986541337321,0.46193324584694,0.0819523707795445,-0.0250200913520717,-0.104027425967182,-0.00732952869248533,0.00403352966907763,0.465997294025493
8.4,1,0.0878017517624439,0.0412254198838262,-0.0337890764081749,-0.032339447208065,0.0311543117567471,0.00451673940244758,0.00578834396394747,-0.166763308613341,-0.000132246874395988,-0.0233924375133518,0.406898200425225,0.0471612699769077,0.00156661681976786,-0.0860876288135421,-0.0242774742881558,-0.00471510971404157,0.621402630695517
8.43,1,0.0810825932594785,-0.0193589078442742,0.00928271329894915,-0.0284635965046134,0.0140486871954507,0.00577817112745547,0.00676493626717938,-0.168004394665365,0.0010478021586759,0.00994394767092909,0.227215389467045,-0.00477106031474756,0.0174108096560564,-0.0634632404553362,0.0196437472660502,0.0101219723095391,0.823531805373292
8.46,1,0.0936002685628834,0.0361695201473027,-0.011271502833135,-0.0174515010020244,0.0408490249336222,-0.00178533280434584,-0.0364289274778486,-0.176976836451308,-0.00902330596840317,0.0174311553290404,0.379116183965575,0.00195318460646382,0.0345316934720908,-0.0588447726879686,-0.022232734153264,-0.0121819716991689,0.93366801965392
8.49,1,0.097872859889523,0.0121209346802169,-0.0193894263537502,0.000447604805647959,0.0566321807509588,-0.0184128340505183,0.0102643920204271,-0.15459659616891,-0.0149845881527146,-0.0377310505488245,0.348801131219418,-0.0393790500605284,0.0608589943133844,-0.0367544582455926,-0.0165156000447605,-0.0401623584704123,0.945799127170629
8.52,1,0.1087730541907,0.0292875962604653,-0.0266121402630696,0.0116987619657989,0.0249488814966277,-0.0300861639250872,-0.0163274025696585,-0.161595507675405,-0.00961333048493912,-0.0491348002563555,0.353027944781844,-0.021846166366568,0.0831578519038463,-0.0253761406292917,-0.0344452243619088,-0.0278939176610614,0.921720023194067
8.55,1,0.118279569892473,0.0259865108188116,-0.0417086296171962,0.0233466597491379,0.0442874436679179,-0.0313730277413251,0.0306711020233772,-0.145115512558367,0.00147506129133986,-0.0273903622547075,0.32141076896471,0.00423189998067161,0.103549302652058,-0.0144759463281147,-0.043214209418012,-0.0423240862249621,0.913800469985046
8.58,1,0.129444257942442,0.0314340647602771,-0.054689168980987,0.0418459629098381,0.0516118859421573,-0.0659555853958759,-0.00991851557969909,-0.163324889879045,-0.00696839299701936,-0.0229448327077039,0.327636544897814,0.0086621702729372,0.122953988260547,-0.00625629444257942,-0.0552690206610309,-0.0696839299701936,0.907620471816157
8.61,1,0.142577389853613,0.0377208777123325,-0.0702230903042695,0.0555233415733309,0.0448571225114699,-0.0696737571337016,0.0241604866684978,-0.154881435590686,-0.00269580167037975,-0.0128279468164108,0.319315164647359,0.0211493270668661,0.142445142979217,2.54320912299977e-05,-0.0712810652994374,-0.0704265470341095,0.91028575497706
8.64,1,0.155115410830002,0.0362915941852067,-0.0809961241492966,0.0719168675801874,0.0461439863277078,-0.087267677846614,0.00676493626717938,-0.166376740826645,-0.00837224443291523,-0.00998463901689708,0.300388602353994,0.0269987080497655,0.160995310322377,0.00597145502080345,-0.0814335561184525,-0.0904365164138717,0.922330393383587
8.67,1,0.166651407411929,0.0346334218370108,-0.0899533066805017,0.0846227403586942,0.0412355927203182,-0.0925626392406995,0.0337229529709769,-0.15449486780399,-0.00204474013489181,-0.00511185033722953,0.28085166987111,0.0339467553738009,0.178502761925108,0.0119123915321309,-0.0915606148462376,-0.0923795281838435,0.930300810775068
8.7,1,0.171488591163874,0.0126600950142928,-0.0900702943001597,0.0994140446180609,0.0383363343200985,-0.10834070863979,0.0194402905362102,-0.166865036978261,-0.00641905982645141,-0.0176244392223884,0.208263395082451,0.0141504155603707,0.193034658853928,0.021642709636728,-0.0897447635324157,-0.110675374614704,0.950738039287495
8.73,1,0.172495701976582,0.000803654082867926,-0.0860723695588041,0.108945992411064,0.0293333740246793,-0.107842239651682,0.0297352010661133,-0.159886471144749,-0.00564592425305948,-0.0337026072979929,0.183792636900947,0.00140385143589587,0.202490310373241,0.0300709046703492,-0.086428418836024,-0.109027375103,0.959201839248838
8.76,1,0.172546566159042,-0.00256355479598376,-0.0893175043997518,0.116748558000427,0.0134891811883908,-0.111529892880032,0.0168156987212745,-0.17256182541378,-0.010406811731315,-0.0521052685120192,0.149591560614846,-0.000849431847081922,0.209000925728121,0.0365255694245226,-0.0892513809625538,-0.111565497807754,0.96127201147496
8.79,1,0.168889431440168,-0.0140537736136967,-0.0841140985340943,0.119551174453973,0.00749229407635731,-0.104887030650756,0.0332346568193609,-0.159764397106845,-0.00361135695465967,-0.0754621010976491,0.0984730572425509,-0.0139011810663167,0.215287738680176,0.0465000356049277,-0.0846837773776462,-0.10780663472396,0.944766584266691
8.82,1,0.160064495783359,-0.0312763857946511,-0.075741854101179,0.120283618681397,-0.00183619698680583,-0.103030487990967,0.0338653726818649,-0.161208939888709,-0.00269580167037975,-0.0945972065390993,0.010345774712363,-0.0160171310566525,0.213899146499018,0.053921119825841,-0.075777459028901,-0.10523799350973,0.844625181839452
8.85,1,0.141656748151087,-0.0614337595751824,-0.0561947487818028,0.115095472070477,-0.0298471022675253,-0.0899431338440097,0.0285958433790094,-0.169530320139164,-0.000295012258267973,-0.100360118411817,-0.123371074556719,-0.0625883765170242,0.202302112898139,0.0607318338572344,-0.054500971505885,-0.0860571103040661,0.639006724244921
8.88,1,0.116896064129561,-0.0808384451836706,-0.0368307545192826,0.102862636188849,-0.0480107018239896,-0.0643279315571561,0.0172836491999064,-0.169977924944812,0.010732342499059,-0.0750857061474451,-0.225836970122379,-0.0658487706127099,0.185979796746727,0.0691651153091016,-0.0313119907223731,-0.0641397340820541,0.382844528539893
8.91,3,0.0883714306059959,-0.0919420962146875,-0.0195165868099002,0.0793735567288227,-0.0851008636738182,-0.0349538661865088,0.00792463962726727,-0.204036581520025,0.00532039348531551,-0.0204830062766401,-0.311136204107791,-0.0696534114607176,0.166351308735415,0.0780714336578468,-0.00972014526810511,-0.0174565874202704,0.144367809076205
8.94,3,0.0613320312102624,-0.0848872341074862,0.00489822077089755,0.054770551672923,-0.0673340047405418,0.00332651753288369,0.0508133182775353,-0.23897010203355,0.00888088625751518,-0.0187332784000163,-0.257728812524796,-0.145664845728935,0.148335215308084,0.087074393953266,0.00625120802433342,0.00232957955666779,0.032359792881049
8.97,3,0.0496230964079714,-0.0315968301441491,-0.00256864121422976,0.04320403658152,-0.0246996470025737,-0.00634276355276142,0.0494094668416395,-0.223364970854823,-0.00411999877925962,-0.0296792504654073,-0.076230150252795,-0.0735699535101372,0.139093193355103,0.0895718253120518,-0.011007009084343,-0.021281573941262,0.00804671366517126
9,3,0.0387788527075004,-0.0246386099836217,-0.0139367859940387,0.0333770765302489,-0.0274157943459375,-0.0125024160486668,0.00348928291675568,-0.194229967141738,-0.00827051606799524,0.0203253273110141,-0.0199896237067782,0.0388602353994364,0.136417737357707,0.097689748832667,-0.0132958972950428,-0.0123193049918109,0.00299081392864772
9.03,3,0.0242113508509578,-0.0355947548855047,0.0128991566718548,0.0239672027751498,-0.0226142155217139,-0.00177007354960784,0.00251269061352377,-0.189835301777195,0.00446587521998759,-0.0124210333567309,-0.0236213263344218,0.230496129235715,0.135166478469192,0.111056855983154,0.0444858139795119,0.0298064109215573,0.00189214758751183
9.06,3,0.0596535131890825,0.132847071749016,0.123894975636057,0.0409151483708202,0.115665150914029,0.0890631834874518,0.19876705221717,-0.267840611997843,0.00483209733369956,-0.0352997426272368,0.878821171707307,0.342824589780369,0.156092003133234,0.0965198726360871,0.124515518662069,0.117597989847509,0.00162765383871985
9.09,3,0.168838567257708,0.378042949715669,0.0487278867966755,0.121901099683625,0.30878627887814,0.0121158482619709,0.0863368633075961,-0.290383617664113,-0.00200404878892382,-0.130232652770572,1.55008596046836,0.377849665822321,0.235012868638162,0.0662760297453739,0.0447706534012879,-0.00271614734336375,0.00152592547379986
9.12,3,0.290698975595365,0.428083132419813,0.0241604866684978,0.196457818333486,0.23378195542263,-0.0182398958301543,0.00121056754254789,-0.250465407269509,-0.010549231442203,0.0139876501764987,1.56622007914467,0.26334421826838,0.330902025411746,0.0402946053448083,0.0206712037517421,-0.0270190537227495,0.00164799951170385
9.15,3,0.406262398144475,0.40939563178401,0.0205287840408541,0.235236671040986,0.112928657897682,-0.0116784162928149,-0.00957263913897112,-0.208716086306345,0.00141402427238787,-0.00493382569861955,1.4448886583046,-0.0843735058646402,0.421999776197597,0.0158289335815505,0.0179855749178543,-0.00597145502080345,0.00167851802117985
9.18,3,0.516047649566129,0.388856674906664,0.0191554511144342,0.249417605110833,0.043265073600472,0.00502538122704754,0.0228990549434899,-0.195694855596586,0.00206508580787581,-0.00182093773206783,1.33637501144444,-0.229722993662323,0.50429802341787,-0.0115054780724509,0.0156763410341706,0.0129093295083468,0.00167851802117985
9.21,3,0.615680410168767,0.354238512324391,0.0182805871761223,0.253669850764489,0.0159001434369945,0.0119022186956389,0.02208522802413,-0.17408775088758,-0.00355031993570767,-0.0388297168899604,1.20608132165492,-0.237973164057334,0.580187383648183,-0.0352488784447768,0.0166529333374025,0.021698660237434,0.00167851802117985
9.24,3,0.708263395082451,0.326639606921598,0.0167139703563545,0.255765455081841,0.0114953052359589,0.0186569821263263,0.000681580044963937,-0.175430565304524,0.00462864060385957,-0.0148930326242866,1.1064180425428,-0.187068290251371,0.650125634530676,-0.0578834396394747,0.0136214280627867,0.0229804376354259,0.00167851802117985
9.27,3,0.796990874965667,0.310769981994079,0.0121361939349549,0.257016713970356,0.00607318338572344,0.021464684998118,-0.0142521439252907,-0.17347738069806,0.00678528194016338,-0.00812809635710725,0.915382346059552,-0.106377351196834,0.710348826563311,-0.0863979003265481,0.00605283771273944,0.0229702647989339,0.00167851802117985
9.3,3,0.879278949349447,0.285205643889686,-0.00126143172500788,0.258298491368348,0.00797550380972727,0.0231025116733299,-0.0252388073366497,-0.154677978860846,0.0115461694184189,-0.0075584175135553,0.672658467360454,-0.0425428022095401,0.757998392691834,-0.121026235745313,-0.00307219662058372,0.0226447340311899,0.00167851802117985
9.33,3,0.948199916582741,0.232632424899035,-0.00362152979115167,0.257209997863704,0.000162765383871985,0.0234382152775658,-0.0725221513514613,-0.0923795281838435,0.00804671366517126,-0.0413322346669922,0.278623818679362,-0.0299996948149052,0.78698080385754,-0.161005483158869,-0.00375377666554765,0.0258186590166936,0.00167851802117985
9.36,3,1.00711081270791,0.194809818821782,-0.00550350454217149,0.257637256996368,0.00735496078371532,0.0254320912299977,-0.0659708446506139,-0.106987721386354,0.0125227617216508,-0.097740613015127,-0.181849625130975,-0.117699718212429,0.787947223324279,-0.218939786980804,-0.00659199804681539,0.0235602893154698,0.00167851802117985
9.39,3,1.05116936755476,0.145247759432763,-0.00594093651132745,0.259336120690532,0.00795515813674327,0.0234483881140578,-0.0350047303689688,-0.118503372295297,0.00666320790225939,-0.161483606473993,-0.509526861374757,-0.135288552507096,0.766482538326162,-0.284432508316294,-0.00397757906837163,0.022095400860622,0.00167851802117985
9.42,3,1.07719148330129,0.08666239407534,0.00395723339538764,0.262916959135716,0.0155034028138066,0.0206101667327901,-0.0363068534399447,-0.104464857936338,0.00731426943774733,-0.206030457472457,-0.858373770358389,-0.139021983499659,0.724773908708965,-0.352173426516516,0.00751772616758731,0.0177007354960784,0.00167851802117985
9.45,3,1.0937019969278,0.0559099093600269,0.000356049277219967,0.267810093488367,0.0167241431928465,0.00813826919359925,-0.0238959929197058,-0.11235897905413,0.00348928291675568,-0.247912025310017,-1.17988626768802,-0.126061789808852,0.662902717164627,-0.430544958850876,-0.0126143172500788,-0.0352895697907448,0.00167851802117985
9.48,3,1.08923612170782,-0.00890123193049918,-0.0207831049531541,0.262052268033896,-0.0346588539282408,-0.032959990234077,0.0176498713136184,-0.146946623126926,-0.00493382569861955,-0.281329793186234,-1.42176580095828,-0.11057873266803,0.568508967355368,-0.520452487767164,-0.0182297229936623,-0.0510981576993113,0.00167851802117985
9.51,3,1.05856501968444,-0.0934985401979634,-0.00195318460646382,0.231198054953663,-0.124546037171545,-0.0162663655507065,0.0371817173782566,-0.145929339477727,-0.0171412294890184,-0.282865891496526,-1.58640298674479,-0.108727276426486,0.427910194199449,-0.630420850245674,0.00246182643106377,-0.00337738171534369,0.00167851802117985
9.54,3,1.02456740012818,-0.11007009084343,0.00913520716981516,0.19856359548733,-0.0969267860957671,0.0102542191839351,0.521815647857092,-0.199641916155482,-0.0238553015737378,-0.277270831425927,-0.561947487818028,-0.167210913418989,0.352336191900388,-0.67202775149795,0.0114342682170069,0.0119022186956389,0.00115970336008789
9.57,3,1.02346873378704,-0.0143538722902107,0.00154627114678386,0.186824142175563,-0.0275785597298095,0.000946073793755913,-0.0265816217535936,0.0189113030386263,-0.0728069907732373,-0.221991637928404,-0.655191707103692,-0.0736411633655812,0.223385316527807,-0.799829096346934,-0.00447604805647959,-0.00552385021515549,0.00147506129133986
9.6,3,1.02800581886247,0.0102440463474431,-0.0115970336008789,0.186793623666087,-0.000172938220363984,-0.00742617063915932,0.0336008789330729,-0.0569780571916868,-0.0420036418754641,-0.04396699931842,-0.866969817194128,-0.0908027385275836,0.172755109307128,-0.854996388643045,-0.0143945636361787,-0.0176905626595864,0.00152592547379986
9.63,3,1,-0.0856044190801721,-0.000132246874395988,0.187637969094923,-0.000478123315123956,-0.0137028107547227,0.121209346802169,-0.103447574287138,-0.043224382254504,0.0255439924314096,-0.777418337555061,-0.00382498652099165,0.143986327707755,-0.855800042725913,0.00567644276253548,-0.0185247352519303,0.00166834518468785
9.66,3,0.958962777591276,-0.130486973682872,0.0173853775648264,0.185593228960031,-0.0127363912879828,-0.0151168350271106,0.123162531408633,-0.145278277942239,-0.0268664611753695,0.192887152724794,-0.672882269763278,0.0266731772820215,0.126773888363292,-0.831965086825159,0.0211900184128341,-0.0134790083518988,0.00167851802117985
9.69,3,0.921821751558987,-0.121046581418297,0.0231940672017579,0.181819106621499,-0.0167241431928465,-0.0125939715770948,0.0956551815342672,-0.202449619027273,-0.00884019491154719,0.235592720318206,-0.508163701284829,0.127465641244748,0.0942106387524033,-0.82738731040376,0.0242825607064018,-0.00922676269824315,0.00167851802117985
9.72,3,0.900489313435265,-0.0696839299701936,0.0194402905362102,0.177383749910988,-0.0151778720460626,-0.010467848750267,0.0709148431857255,-0.22181869970804,0.0159815261289305,0.242306792402926,-0.330423902096622,0.147434919278542,0.0694804732403536,-0.83079521062858,0.0168869085767184,-0.00782291126234728,0.00244148075807978
9.75,3,0.892513809625538,-0.0249234494053977,0.011302021342611,0.176386811934772,-0.00135298725343588,-0.0097862687053031,0.0263578193507696,-0.192724387340922,0.0309152500991852,0.19947915077161,-0.253049307738477,0.115054780724509,0.0528173670664591,-0.839462467319763,0.00837224443291523,-0.011302021342611,0.00263476465142776
9.78,3,0.891527044485814,-0.00185145624154383,0.00496434420809554,0.176742861211992,0.000152592547379986,-0.011230811487167,0.0147607857498906,-0.161473433637501,0.032380138554033,0.119734285510829,-0.252693258461257,0.0471409243039237,0.0382600380464085,-0.853012685527106,0.00299081392864772,-0.0125125888851588,0.00181076489557583
9.81,3,0.890560625019074,-0.00065106153548794,0.00270597450687175,0.176997182124292,0.000152592547379986,-0.0120548112430189,0.0360016683451847,-0.10808638772749,0.0187892290007223,0.0716676330861334,-0.303170873134556,0.0232551042207099,0.02188177129429,-0.868465224158452,0.00259407330545976,-0.0129093295083468,0.00167851802117985
9.84,3,0.885107984659362,-0.0154321929583626,0.00445570238349559,0.177231157363608,0.000152592547379986,-0.0125736259041108,0.100253303628651,-0.098320464695171,0.00454725791192358,0.0559302550330109,-0.218054750206,0.0192775251523382,0.0423291726432081,-0.842575355286314,0.00556454156112349,-0.0129703665272988,0.00167851802117985
9.87,3,0.87293109937844,-0.0371206803593046,0.00797550380972727,0.176712342702516,-0.00454725791192358,-0.0130720948922188,0.114942879523097,-0.0779747917111728,-0.00363170262764367,0.0795108900214647,-0.087038789025544,0.0392061118401644,0.106011129083122,-0.766665649383018,0.010752688172043,-0.0120548112430189,0.00167851802117985
9.9,3,0.854904833114617,-0.0573341064689067,0.0147709585863826,0.174687948240608,-0.00645975117241941,-0.010559404278695,0.0723390402946053,-0.176203700877916,0.0687175105034537,-0.0808028402559486,0.0550960824406669,0.0362356435845007,0.137648650573239,-0.717022207302062,0.0172938220363984,-0.00929797255368714,0.00169886369416384
9.93,3,0.844782860805078,-0.0363780632953887,0.0162002421135085,0.16928108564511,-0.021642709636728,-0.00527461572110151,-0.0115258237454349,-0.279437645598722,-0.0401725313069043,0.0900499486271757,0.194377473270872,-0.0246742149113437,0.145532598854539,-0.699006113874732,0.0158238471633045,-0.00188197475101983,0.0281838435010834
9.96,3,0.851212093468022,0.0136316008992787,0.00948617002878913,0.163014618366039,-0.0142216254158147,0.00171920936714784,0.0442009745577359,-0.11174860886461,-0.00593076367483545,0.0601926735231585,0.215521713919492,0.131178726564328,0.158757286294137,-0.692215745516322,0.00447096163823359,0.00097659230323191,0.0153813287759026
9.99,3,0.855825474817143,0.00739565212968332,0.00380972726625365,0.161066520177821,-0.00700399792474136,-0.00162765383871985,0.0114444410534989,-0.183975747957803,-0.0118310088401949,0.0558743044323049,0.201152582374544,0.144891710155543,0.170161036001668,-0.685415204321421,0.00400809757784763,-0.0021210364085818,0.0102999969481491
10.02,3,0.861069572028769,0.00658691162856939,0.00482701091545356,0.159789829198075,-0.00065106153548794,-0.00116987619657989,0.032664977975809,-0.150568152918078,-0.00371308531957966,0.0410524816634622,0.173691010264392,0.0986917732271289,0.177704194260486,-0.683131402528967,0.00449639372946359,-0.00270597450687175,0.022003845332194
10.05,3,0.872997222815638,0.0270699179052095,0.0011393576871039,0.159876298308257,0.000152592547379986,-0.00287382630898974,0.0257067578152816,-0.167556789859717,-0.00772118289742729,0.0234382152775658,0.178777428510392,0.0357727795241147,0.188187302265491,-0.684575945310831,-0.000178024638609984,-0.00343333231604968,0.0498570716472874
10.08,3,0.8876664530371,0.0394248278247424,-0.00317901140374971,0.160659606718141,0.000152592547379986,-0.00320444349497971,0.0123396506647949,-0.161188594215725,-0.00688701030508337,0.00676493626717938,0.186269722586749,0.0129500208543148,0.199265521205278,-0.688146610919523,-0.00446587521998759,-0.00379955442976165,0.065502894171982
10.11,3,0.897818943856115,0.0268562883388775,-0.00391654204941964,0.162129581591235,0.000152592547379986,-0.00351980142623168,0.0229600919624419,-0.160842717774997,-7.12098554439934e-05,0.00174464145837784,0.194321522670166,-0.0133620207322408,0.210577715384381,-0.687017426068911,-0.00336720887885169,-0.00459303567613758,0.0858180486465041
10.14,3,0.910534989471114,0.0360677917823827,-0.00428785058137761,0.164006469924009,0.000467950478631957,-0.00422172714417961,0.0204779198583941,-0.161717581713309,-0.00725323241879533,0.00476088747825556,0.235877559739982,-0.0173955504013184,0.223512476983957,-0.686788537247841,-0.00781782484410128,-0.00566118350779748,0.106067079683828
10.17,3,0.922355825474817,0.0335500147506129,-0.021632536800236,0.168960641295612,0.0128737245806248,-0.00597654143904945,0.0305693736584572,-0.159805088452813,-0.00499486271757154,0.000162765383871985,0.264727724031292,-0.011393576871039,0.238731040375988,-0.683411155532497,-0.0346639403464868,-0.010406811731315,0.118116804508601
10.2,3,0.927650786868903,0.010508540096235,-0.0706401766004415,0.179001230913216,0.0358541622160507,-0.011251157160151,0.0518509475997192,-0.139011810663167,0.000233975239315978,-0.00741091138442132,0.255490788496556,-0.0275226091291035,0.256385998107852,-0.671000295012258,-0.075706249173457,-0.02147485783461,0.152546769615772
10.23,3,0.928454440951771,-0.00285856705425174,-0.0882086652221239,0.196615497299112,0.0593381552578305,-0.0239672027751498,0.0419426048565121,-0.158218125960061,-0.00273649301634775,0.0205491297138381,0.234260078737754,-0.00397249265012563,0.273700165817235,-0.654535559149958,-0.0902940967029837,-0.0362509028392387,0.189347005625579
10.26,3,0.926094342885627,-0.0191554511144342,-0.141733044424777,0.21238339386171,0.0409863582262642,-0.0391247291482284,0.0413118889940082,-0.15459659616891,-0.00493382569861955,0.0371206803593046,0.13480025635548,0.0222785119174779,0.280246386099836,-0.645598722291737,-0.148091067232276,-0.0517695649077832,0.240170496739606
10.29,3,0.913383383688874,-0.0513067008473973,-0.184291105889055,0.217220577613656,0.00253812270475377,-0.0556301563564969,0.0496129235714794,-0.155186620685446,-0.00308236945707572,0.0461185542364778,-0.00771609647918129,0.0239315978474278,0.284152755312764,-0.628996653136794,-0.191127252011678,-0.0580614642780847,0.310271513005971
10.32,3,0.873633025096388,-0.146539709667247,-0.223202205470951,0.2150028992584,-0.0133721935687328,-0.0617948952706483,0.0679443749300617,-0.160313730277413,0.00196335744295582,0.087181208736432,-0.214072084719382,0.0733308918525753,0.27894426302886,-0.594464959664703,-0.228039389222897,-0.0644957833592741,0.376842555009613
10.35,3,0.810093488367361,-0.225633513392539,-0.240104373302408,0.206605222734255,-0.0402081362346263,-0.0603656117435224,0.0387279885250404,-0.159744051433861,-0.00344859157078768,0.0505183060192674,-0.414705852432834,0.0472172205776137,0.259844762515132,-0.550050355540635,-0.251116468804997,-0.0688548437960957,0.48330637531663
10.38,3,0.730653808201341,-0.280566830449334,-0.24133528651794,0.182612587867875,-0.097618538977223,-0.0518611204362112,0.0287382630898974,-0.176753034048484,-0.0076601458784753,0.086591184219896,-0.61083305358033,0.0358134708700827,0.225267291278827,-0.505137282428459,-0.246986297189245,-0.0605538092186244,0.557522303944009
10.41,3,0.644947660756249,-0.306049785861792,-0.24108096560564,0.141488896348969,-0.152211066011536,-0.0504521825820694,0.0208034506261381,-0.168207851395204,-0.00879950356557919,0.010996836247851,-0.755389060131636,-0.00241604866684978,0.178955453149002,-0.465727713858455,-0.274208807641835,-0.0473901587979776,0.602201401816869
10.44,3,0.533814508499405,-0.362488682719403,-0.210277616707867,0.0949888607440413,-0.147358623004852,-0.0387330749432864,0.0281278929003774,-0.165868099002045,-0.00289925840021973,-0.0247505111850337,-0.883877071443831,-0.0572222052674947,0.125715913368124,-0.407864619891964,-0.261024811548204,-0.0274819177831355,0.619352804142379
10.47,3,0.403190201523891,-0.421338541825617,-0.151534572384818,0.0473138625242876,-0.151615955076754,-0.0244656717632578,0.0145980203660187,-0.138604897203487,-0.0122582679728589,0.00590024516535946,-0.987701040681173,-0.0145369833470667,0.0695415102593056,-0.333394370352285,-0.177373577074496,-0.00208543148085981,0.612852361623992
10.5,3,0.267972858872239,-0.467421491134373,-0.087252418591876,-0.0021464684998118,-0.169387900428276,-0.0122074037903989,-0.0021261228268278,-0.160944446139917,-0.00314340647602771,-0.0928169601529995,-1.09501429283527,-0.0488194423251035,0.00906399731437117,-0.258735923337504,-0.0589312417981506,0.0245572272916857,0.564978993092644
10.53,3,0.149886572873114,-0.406760867132583,0.0495824050620034,-0.0569577115187028,-0.175806960254728,0.0132755516220588,-0.0350454217149368,-0.164932198044781,0.00190232042400382,-0.0231330301828059,-0.989115064953561,-0.0291248308765933,-0.0573646249783827,-0.207169815159561,0.100548315886919,0.0605792413098544,0.471480452894681
10.56,3,0.117628508356985,-0.101646982228055,0.115777052115441,-0.0838139998575803,-0.0393688772240364,0.0563676870021668,-0.145196895250303,-0.168187505722221,-0.0286568803979614,-0.130263171280048,-0.04345835749382,0.213141270180364,-0.0945565151931313,-0.212103640858181,0.115207373271889,0.0721966205837174,0.375713370159001
10.59,1,0.130486973682872,0.0606402783288064,0.0720643737093214,-0.054485712251147,0.136193934954883,0.043183690908536,0.032583595283873,-0.145685191401919,-0.00363170262764367,-0.143620105594043,0.471134576453953,0.282092755923134,-0.0770897549363689,-0.207525864436781,0.0710267443871375,0.0398876918851283,0.27886796675517
10.62,1,0.155084892320526,0.101016266365551,0.0230211289813939,-0.00464898627684357,0.183487451806187,0.0136519465722627,-0.0577511927650787,-0.130670084739728,-0.0131534775841548,-0.0704062013611255,0.588132368948434,-0.0210984628844061,-0.043478703166804,-0.198502558468378,-0.00587989949237546,-0.0679443749300617,0.26237779880164
